starttime,tilt1,tilt2,compass,accelerometer,ax,ay,az
2020-01-19 18:17:48.400000,-9.0,-1.625,321.625,0.985,-28.0,-151.0,973.0
2020-01-19 18:17:48.500000,-9.0,-1.625,321.625,0.985,-28.0,-151.0,973.0
2020-01-19 18:17:48.600000,-9.0,-1.625,321.625,0.985,-28.0,-151.0,973.0
2020-01-19 18:17:48.700000,-9.0,-1.625,321.625,0.986,-27.0,-151.0,974.0
2020-01-19 18:17:48.800000,-9.0,-1.625,321.625,0.985,-27.0,-150.0,974.0
2020-01-19 18:17:48.900000,-9.0,-1.625,321.625,0.985,-27.0,-150.0,974.0
2020-01-19 18:17:49,-9.0,-1.625,321.625,0.985,-27.0,-152.0,973.0
2020-01-19 18:17:49.100000,-9.0,-1.625,321.625,0.985,-28.0,-150.0,974.0
2020-01-19 18:17:49.200000,-9.0,-1.625,321.625,0.985,-28.0,-150.0,974.0
2020-01-19 18:17:49.300000,-9.0,-1.625,321.625,0.984,-28.0,-151.0,972.0
2020-01-19 18:17:49.400000,-9.0,-1.625,321.625,0.984,-26.0,-151.0,973.0
2020-01-19 18:17:49.500000,-9.0,-1.625,321.625,0.984,-26.0,-151.0,973.0
2020-01-19 18:17:49.600000,-9.0,-1.625,321.625,0.985,-28.0,-150.0,974.0
2020-01-19 18:17:49.700000,-9.0,-1.625,321.625,0.986,-25.0,-153.0,974.0
2020-01-19 18:17:49.800000,-9.0,-1.625,321.625,0.986,-25.0,-153.0,974.0
2020-01-19 18:17:49.900000,-9.0,-1.625,321.625,0.987,-29.0,-149.0,976.0
2020-01-19 18:17:50,-9.0,-1.563,321.625,0.984,-29.0,-151.0,972.0
2020-01-19 18:17:50.100000,-9.0,-1.563,321.625,0.984,-29.0,-151.0,972.0
2020-01-19 18:17:50.200000,-9.0,-1.563,321.625,0.985,-27.0,-153.0,973.0
2020-01-19 18:17:50.300000,-9.0,-1.563,321.625,0.984,-27.0,-153.0,972.0
2020-01-19 18:17:50.400000,-9.0,-1.563,321.625,0.984,-27.0,-153.0,972.0
2020-01-19 18:17:50.500000,-9.0,-1.563,321.625,0.985,-28.0,-149.0,974.0
2020-01-19 18:17:50.600000,-9.0,-1.563,321.625,0.985,-28.0,-151.0,973.0
2020-01-19 18:17:50.700000,-9.0,-1.563,321.625,0.985,-28.0,-151.0,973.0
2020-01-19 18:17:50.800000,-9.0,-1.563,321.625,0.985,-27.0,-152.0,973.0
2020-01-19 18:17:50.900000,-9.0,-1.563,321.625,0.985,-27.0,-150.0,974.0
2020-01-19 18:17:51,-9.0,-1.563,321.625,0.985,-27.0,-150.0,974.0
2020-01-19 18:17:51.100000,-9.0,-1.563,321.625,0.985,-28.0,-152.0,973.0
2020-01-19 18:17:51.200000,-9.0,-1.563,321.625,0.985,-27.0,-152.0,973.0
2020-01-19 18:17:51.300000,-9.0,-1.563,321.625,0.985,-27.0,-152.0,973.0
2020-01-19 18:17:51.400000,-9.0,-1.563,321.625,0.985,-28.0,-150.0,974.0
2020-01-19 18:17:51.500000,-9.0,-1.563,321.625,0.985,-28.0,-151.0,973.0
2020-01-19 18:17:51.600000,-9.0,-1.563,321.625,0.985,-28.0,-151.0,973.0
2020-01-19 18:17:51.700000,-9.0,-1.563,321.625,0.985,-27.0,-152.0,973.0
2020-01-19 18:17:51.800000,-9.0,-1.563,321.625,0.985,-27.0,-150.0,974.0
2020-01-19 18:17:51.900000,-9.0,-1.563,321.625,0.985,-27.0,-150.0,974.0
2020-01-19 18:17:52,-9.0,-1.563,321.625,0.985,-29.0,-152.0,973.0
2020-01-19 18:17:52.100000,-9.0,-1.563,321.625,0.985,-28.0,-152.0,973.0
2020-01-19 18:17:52.200000,-9.0,-1.563,321.625,0.985,-28.0,-152.0,973.0
2020-01-19 18:17:52.300000,-9.0,-1.563,321.625,0.986,-27.0,-151.0,975.0
2020-01-19 18:17:52.400000,-9.0,-1.563,321.625,0.985,-29.0,-151.0,973.0
2020-01-19 18:17:52.500000,-9.0,-1.563,321.625,0.985,-29.0,-151.0,973.0
2020-01-19 18:17:52.600000,-9.0,-1.563,321.625,0.985,-28.0,-151.0,973.0
2020-01-19 18:17:52.700000,-9.0,-1.563,321.625,0.986,-27.0,-151.0,974.0
2020-01-19 18:17:52.800000,-9.0,-1.563,321.625,0.986,-27.0,-151.0,974.0
2020-01-19 18:17:52.900000,-9.0,-1.563,321.625,0.984,-29.0,-150.0,973.0
2020-01-19 18:17:53,-9.0,-1.563,321.625,0.985,-28.0,-151.0,973.0
2020-01-19 18:17:53.100000,-9.0,-1.563,321.625,0.985,-28.0,-151.0,973.0
2020-01-19 18:17:53.200000,-9.0,-1.563,321.625,0.986,-28.0,-151.0,974.0
2020-01-19 18:17:53.300000,-9.0,-1.563,321.625,0.986,-29.0,-149.0,975.0
2020-01-19 18:17:53.400000,-9.0,-1.563,321.625,0.986,-29.0,-149.0,975.0
2020-01-19 18:17:53.500000,-9.0,-1.563,321.625,0.984,-28.0,-153.0,972.0
2020-01-19 18:17:53.600000,-9.0,-1.563,321.625,0.986,-28.0,-150.0,975.0
2020-01-19 18:17:53.700000,-9.0,-1.563,321.625,0.986,-28.0,-150.0,975.0
2020-01-19 18:17:53.800000,-9.0,-1.563,321.625,0.984,-29.0,-151.0,972.0
2020-01-19 18:17:53.900000,-9.0,-1.563,321.625,0.986,-31.0,-145.0,975.0
2020-01-19 18:17:54,-9.0,-1.563,321.625,0.986,-31.0,-145.0,975.0
2020-01-19 18:17:54.100000,-9.0,-1.563,321.625,0.986,-24.0,-158.0,973.0
2020-01-19 18:17:54.200000,-9.0,-1.563,321.625,0.981,-30.0,-150.0,970.0
2020-01-19 18:17:54.300000,-9.0,-1.563,321.625,0.981,-30.0,-150.0,970.0
2020-01-19 18:17:54.400000,-9.0,-1.563,321.625,0.987,-26.0,-153.0,975.0
2020-01-19 18:17:54.500000,-9.0,-1.563,321.625,0.985,-29.0,-151.0,973.0
2020-01-19 18:17:54.600000,-9.0,-1.563,321.625,0.985,-29.0,-151.0,973.0
2020-01-19 18:17:54.700000,-9.0,-1.563,321.625,0.986,-28.0,-150.0,975.0
2020-01-19 18:17:54.800000,-9.0,-1.563,321.625,0.985,-27.0,-151.0,973.0
2020-01-19 18:17:54.900000,-9.0,-1.563,321.625,0.985,-27.0,-151.0,973.0
2020-01-19 18:17:55,-9.0,-1.563,321.625,0.985,-29.0,-148.0,974.0
2020-01-19 18:17:55.100000,-9.0,-1.563,321.625,0.985,-27.0,-151.0,973.0
2020-01-19 18:17:55.200000,-9.0,-1.563,321.625,0.985,-27.0,-151.0,973.0
2020-01-19 18:17:55.300000,-9.0,-1.563,321.625,0.986,-28.0,-151.0,974.0
2020-01-19 18:17:55.400000,-9.0,-1.563,321.625,0.986,-28.0,-152.0,974.0
2020-01-19 18:17:55.500000,-9.0,-1.563,321.625,0.986,-28.0,-152.0,974.0
2020-01-19 18:17:55.600000,-9.0,-1.563,321.625,0.986,-28.0,-152.0,974.0
2020-01-19 18:17:55.700000,-9.0,-1.563,321.625,0.985,-28.0,-151.0,973.0
2020-01-19 18:17:55.800000,-9.0,-1.563,321.625,0.985,-28.0,-151.0,973.0
2020-01-19 18:17:55.900000,-9.0,-1.563,321.625,0.985,-28.0,-150.0,974.0
2020-01-19 18:17:56,-9.0,-1.563,321.625,0.985,-28.0,-152.0,973.0
2020-01-19 18:17:56.100000,-9.0,-1.563,321.625,0.985,-28.0,-152.0,973.0
2020-01-19 18:17:56.200000,-9.0,-1.563,321.625,0.986,-27.0,-151.0,974.0
2020-01-19 18:17:56.300000,-9.0,-1.563,321.625,0.985,-28.0,-151.0,973.0
2020-01-19 18:17:56.400000,-9.0,-1.563,321.625,0.985,-28.0,-151.0,973.0
2020-01-19 18:17:56.500000,-9.0,-1.563,321.625,0.986,-28.0,-151.0,974.0
2020-01-19 18:17:56.600000,-9.0,-1.563,321.625,0.986,-27.0,-151.0,974.0
2020-01-19 18:17:56.700000,-9.0,-1.563,321.625,0.986,-27.0,-151.0,974.0
2020-01-19 18:17:56.800000,-9.0,-1.563,321.625,0.985,-28.0,-151.0,973.0
2020-01-19 18:17:56.900000,-9.0,-1.563,321.625,0.985,-28.0,-151.0,973.0
2020-01-19 18:17:57,-9.0,-1.563,321.625,0.985,-28.0,-151.0,973.0
2020-01-19 18:17:57.100000,-9.0,-1.563,321.625,0.985,-27.0,-150.0,974.0
2020-01-19 18:17:57.200000,-9.0,-1.563,321.625,0.985,-29.0,-151.0,973.0
2020-01-19 18:17:57.300000,-9.0,-1.563,321.625,0.985,-29.0,-151.0,973.0
2020-01-19 18:17:57.400000,-9.0,-1.563,321.625,0.985,-27.0,-151.0,973.0
2020-01-19 18:17:57.500000,-9.0,-1.563,321.625,0.988,-27.0,-150.0,977.0
2020-01-19 18:17:57.600000,-9.0,-1.563,321.625,0.988,-27.0,-150.0,977.0
2020-01-19 18:17:57.700000,-9.0,-1.438,321.625,0.982,-30.0,-155.0,970.0
2020-01-19 18:17:57.800000,-9.0,-1.625,321.625,0.988,-31.0,-144.0,977.0
2020-01-19 18:17:57.900000,-9.0,-1.625,321.625,0.988,-31.0,-144.0,977.0
2020-01-19 18:17:58,-9.0,-1.625,321.625,0.984,-31.0,-148.0,973.0
2020-01-19 18:17:58.100000,-9.0,-1.625,321.625,0.984,-28.0,-157.0,971.0
2020-01-19 18:17:58.200000,-9.0,-1.625,321.625,0.984,-28.0,-157.0,971.0
2020-01-19 18:17:58.300000,-9.0,-1.625,321.625,0.984,-32.0,-148.0,973.0
2020-01-19 18:17:58.400000,-9.0,-1.625,321.625,0.977,-31.0,-147.0,966.0
2020-01-19 18:17:58.500000,-9.0,-1.625,321.625,0.977,-31.0,-147.0,966.0
2020-01-19 18:17:58.600000,-9.0,-1.688,321.625,0.987,-28.0,-153.0,975.0
2020-01-19 18:17:58.700000,-9.0,-1.688,321.625,0.985,-32.0,-146.0,974.0
2020-01-19 18:17:58.800000,-9.0,-1.688,321.625,0.985,-32.0,-146.0,974.0
2020-01-19 18:17:58.900000,-9.0,-1.688,321.625,0.983,-32.0,-153.0,971.0
2020-01-19 18:17:59,-9.0,-1.625,321.625,0.987,-30.0,-148.0,976.0
2020-01-19 18:17:59.100000,-9.0,-1.625,321.625,0.987,-30.0,-148.0,976.0
2020-01-19 18:17:59.200000,-9.0,-1.625,321.625,0.986,-32.0,-147.0,975.0
2020-01-19 18:17:59.300000,-9.0,-1.625,321.625,0.985,-28.0,-152.0,973.0
2020-01-19 18:17:59.400000,-9.0,-1.625,321.625,0.985,-28.0,-152.0,973.0
2020-01-19 18:17:59.500000,-9.0,-1.625,321.625,0.986,-29.0,-152.0,974.0
2020-01-19 18:17:59.600000,-9.0,-1.625,321.625,0.986,-29.0,-152.0,974.0
2020-01-19 18:17:59.700000,-9.0,-1.625,321.625,0.986,-29.0,-152.0,974.0
2020-01-19 18:17:59.800000,-9.0,-1.625,321.625,0.984,-29.0,-149.0,973.0
2020-01-19 18:17:59.900000,-9.0,-1.625,321.625,0.985,-29.0,-150.0,974.0
2020-01-19 18:18:00,-9.0,-1.625,321.625,0.985,-29.0,-150.0,974.0
2020-01-19 18:18:00.100000,-9.0,-1.625,321.625,0.985,-29.0,-151.0,973.0
2020-01-19 18:18:00.200000,-9.0,-1.625,321.625,0.984,-28.0,-150.0,973.0
2020-01-19 18:18:00.300000,-9.0,-1.625,321.625,0.984,-28.0,-150.0,973.0
2020-01-19 18:18:00.400000,-9.0,-1.625,321.625,0.984,-29.0,-150.0,973.0
2020-01-19 18:18:00.500000,-9.0,-1.625,321.625,0.985,-29.0,-150.0,974.0
2020-01-19 18:18:00.600000,-9.0,-1.625,321.625,0.985,-29.0,-150.0,974.0
2020-01-19 18:18:00.700000,-9.0,-1.625,321.625,0.984,-29.0,-150.0,973.0
2020-01-19 18:18:00.800000,-9.0,-1.625,321.625,0.987,-29.0,-151.0,975.0
2020-01-19 18:18:00.900000,-9.0,-1.625,321.625,0.987,-29.0,-151.0,975.0
2020-01-19 18:18:01,-9.0,-1.625,321.625,0.984,-31.0,-146.0,973.0
2020-01-19 18:18:01.100000,-9.0,-1.625,321.625,0.984,-29.0,-150.0,973.0
2020-01-19 18:18:01.200000,-9.0,-1.625,321.625,0.984,-29.0,-150.0,973.0
2020-01-19 18:18:01.300000,-9.0,-1.625,321.625,0.984,-28.0,-153.0,972.0
2020-01-19 18:18:01.400000,-9.0,-1.625,321.625,0.987,-29.0,-152.0,975.0
2020-01-19 18:18:01.500000,-9.0,-1.625,321.625,0.987,-29.0,-152.0,975.0
2020-01-19 18:18:01.600000,-9.0,-1.625,321.625,0.982,-30.0,-151.0,970.0
2020-01-19 18:18:01.700000,-9.0,-1.625,321.625,0.984,-29.0,-150.0,973.0
2020-01-19 18:18:01.800000,-9.0,-1.625,321.625,0.984,-29.0,-150.0,973.0
2020-01-19 18:18:01.900000,-9.0,-1.625,321.625,0.988,-29.0,-151.0,976.0
2020-01-19 18:18:02,-9.0,-1.5,321.625,0.986,-30.0,-151.0,974.0
2020-01-19 18:18:02.100000,-9.0,-1.5,321.625,0.986,-30.0,-151.0,974.0
2020-01-19 18:18:02.200000,-9.0,-1.688,321.625,0.985,-30.0,-150.0,974.0
2020-01-19 18:18:02.300000,-9.0,-1.688,321.625,0.988,-31.0,-152.0,976.0
2020-01-19 18:18:02.400000,-9.0,-1.688,321.625,0.988,-31.0,-152.0,976.0
2020-01-19 18:18:02.500000,-9.0,-1.5,321.625,0.987,-28.0,-156.0,975.0
2020-01-19 18:18:02.600000,-9.0,-1.563,321.625,0.987,-35.0,-140.0,977.0
2020-01-19 18:18:02.700000,-9.0,-1.563,321.625,0.987,-35.0,-140.0,977.0
2020-01-19 18:18:02.800000,-8.938,-1.75,321.625,0.985,-30.0,-154.0,973.0
2020-01-19 18:18:02.900000,-8.938,-1.563,321.625,0.985,-33.0,-148.0,974.0
2020-01-19 18:18:03,-8.938,-1.563,321.625,0.985,-33.0,-148.0,974.0
2020-01-19 18:18:03.100000,-8.938,-1.75,321.625,0.986,-30.0,-149.0,975.0
2020-01-19 18:18:03.200000,-8.938,-1.75,321.625,0.986,-31.0,-151.0,974.0
2020-01-19 18:18:03.300000,-8.938,-1.75,321.625,0.986,-31.0,-151.0,974.0
2020-01-19 18:18:03.400000,-8.938,-1.75,321.625,0.986,-31.0,-151.0,974.0
2020-01-19 18:18:03.500000,-8.938,-1.75,321.625,0.985,-31.0,-149.0,974.0
2020-01-19 18:18:03.600000,-8.938,-1.75,321.625,0.985,-31.0,-149.0,974.0
2020-01-19 18:18:03.700000,-8.938,-1.75,321.625,0.985,-31.0,-149.0,974.0
2020-01-19 18:18:03.800000,-8.938,-1.75,321.625,0.987,-30.0,-150.0,976.0
2020-01-19 18:18:03.900000,-8.938,-1.75,321.625,0.987,-30.0,-150.0,976.0
2020-01-19 18:18:04,-8.938,-1.75,321.625,0.985,-32.0,-147.0,974.0
2020-01-19 18:18:04.100000,-8.938,-1.75,321.625,0.984,-32.0,-143.0,974.0
2020-01-19 18:18:04.200000,-8.938,-1.75,321.625,0.984,-32.0,-143.0,974.0
2020-01-19 18:18:04.300000,-8.938,-1.75,321.625,0.986,-27.0,-162.0,973.0
2020-01-19 18:18:04.400000,-8.938,-1.75,321.625,0.987,-30.0,-148.0,976.0
2020-01-19 18:18:04.500000,-8.938,-1.75,321.625,0.987,-30.0,-148.0,976.0
2020-01-19 18:18:04.600000,-8.938,-1.75,321.625,0.983,-32.0,-152.0,971.0
2020-01-19 18:18:04.700000,-8.938,-1.75,321.625,0.98,-27.0,-156.0,968.0
2020-01-19 18:18:04.800000,-8.938,-1.75,321.625,0.98,-27.0,-156.0,968.0
2020-01-19 18:18:04.900000,-8.938,-1.688,321.625,0.992,-32.0,-141.0,982.0
2020-01-19 18:18:05,-8.938,-1.688,321.625,0.986,-28.0,-150.0,975.0
2020-01-19 18:18:05.100000,-8.938,-1.688,321.625,0.986,-28.0,-150.0,975.0
2020-01-19 18:18:05.200000,-8.938,-1.688,321.625,0.986,-29.0,-151.0,974.0
2020-01-19 18:18:05.300000,-8.938,-1.688,321.625,0.985,-28.0,-151.0,973.0
2020-01-19 18:18:05.400000,-8.938,-1.688,321.625,0.985,-28.0,-151.0,973.0
2020-01-19 18:18:05.500000,-8.938,-1.688,321.625,0.986,-28.0,-151.0,974.0
2020-01-19 18:18:05.600000,-8.938,-1.688,321.625,0.985,-28.0,-151.0,973.0
2020-01-19 18:18:05.700000,-8.938,-1.688,321.625,0.985,-28.0,-151.0,973.0
2020-01-19 18:18:05.800000,-8.938,-1.688,321.625,0.985,-29.0,-150.0,974.0
2020-01-19 18:18:05.900000,-8.938,-1.688,321.625,0.985,-28.0,-150.0,974.0
2020-01-19 18:18:06,-8.938,-1.688,321.625,0.985,-28.0,-150.0,974.0
2020-01-19 18:18:06.100000,-8.938,-1.688,321.625,0.985,-28.0,-150.0,974.0
2020-01-19 18:18:06.200000,-8.938,-1.688,321.625,0.984,-29.0,-150.0,973.0
2020-01-19 18:18:06.300000,-8.938,-1.688,321.625,0.984,-29.0,-150.0,973.0
2020-01-19 18:18:06.400000,-8.938,-1.688,321.625,0.986,-27.0,-151.0,975.0
2020-01-19 18:18:06.500000,-8.938,-1.688,321.625,0.985,-27.0,-150.0,974.0
2020-01-19 18:18:06.600000,-8.938,-1.688,321.625,0.985,-27.0,-150.0,974.0
2020-01-19 18:18:06.700000,-8.938,-1.688,321.625,0.985,-29.0,-150.0,974.0
2020-01-19 18:18:06.800000,-8.938,-1.688,321.625,0.985,-28.0,-150.0,974.0
2020-01-19 18:18:06.900000,-8.938,-1.688,321.625,0.985,-28.0,-150.0,974.0
2020-01-19 18:18:07,-8.938,-1.688,321.625,0.986,-27.0,-151.0,974.0
2020-01-19 18:18:07.100000,-8.938,-1.688,321.625,0.984,-29.0,-149.0,973.0
2020-01-19 18:18:07.200000,-8.938,-1.688,321.625,0.984,-29.0,-149.0,973.0
2020-01-19 18:18:07.300000,-8.938,-1.688,321.625,0.986,-27.0,-151.0,974.0
2020-01-19 18:18:07.400000,-8.938,-1.688,321.625,0.985,-28.0,-151.0,973.0
2020-01-19 18:18:07.500000,-8.938,-1.688,321.625,0.985,-28.0,-151.0,973.0
2020-01-19 18:18:07.600000,-8.938,-1.688,321.625,0.985,-29.0,-149.0,974.0
2020-01-19 18:18:07.700000,-8.938,-1.688,321.625,0.986,-28.0,-151.0,974.0
2020-01-19 18:18:07.800000,-8.938,-1.688,321.625,0.986,-28.0,-151.0,974.0
2020-01-19 18:18:07.900000,-8.938,-1.688,321.625,0.985,-28.0,-151.0,973.0
2020-01-19 18:18:08,-8.938,-1.688,321.625,0.985,-28.0,-149.0,974.0
2020-01-19 18:18:08.100000,-8.938,-1.688,321.625,0.985,-28.0,-149.0,974.0
2020-01-19 18:18:08.200000,-8.938,-1.688,321.625,0.986,-29.0,-151.0,974.0
2020-01-19 18:18:08.300000,-8.938,-1.688,321.625,0.985,-28.0,-152.0,973.0
2020-01-19 18:18:08.400000,-8.938,-1.688,321.625,0.985,-28.0,-152.0,973.0
2020-01-19 18:18:08.500000,-8.938,-1.688,321.625,0.984,-29.0,-149.0,973.0
2020-01-19 18:18:08.600000,-8.938,-1.688,321.625,0.986,-28.0,-151.0,974.0
2020-01-19 18:18:08.700000,-8.938,-1.688,321.625,0.986,-28.0,-151.0,974.0
2020-01-19 18:18:08.800000,-8.938,-1.688,321.625,0.986,-28.0,-151.0,974.0
2020-01-19 18:18:08.900000,-8.938,-1.688,321.625,0.985,-28.0,-150.0,974.0
2020-01-19 18:18:09,-8.938,-1.688,321.625,0.985,-28.0,-150.0,974.0
2020-01-19 18:18:09.100000,-8.938,-1.688,321.625,0.986,-28.0,-151.0,974.0
2020-01-19 18:18:09.200000,-8.938,-1.688,321.625,0.987,-28.0,-151.0,975.0
2020-01-19 18:18:09.300000,-8.938,-1.688,321.625,0.987,-28.0,-151.0,975.0
2020-01-19 18:18:09.400000,-8.938,-1.688,321.625,0.984,-29.0,-150.0,973.0
2020-01-19 18:18:09.500000,-8.938,-1.688,321.625,0.984,-28.0,-150.0,973.0
2020-01-19 18:18:09.600000,-8.938,-1.688,321.625,0.984,-28.0,-150.0,973.0
2020-01-19 18:18:09.700000,-8.938,-1.688,321.625,0.984,-29.0,-150.0,973.0
2020-01-19 18:18:09.800000,-8.938,-1.688,321.625,0.986,-28.0,-151.0,974.0
2020-01-19 18:18:09.900000,-8.938,-1.688,321.625,0.986,-28.0,-151.0,974.0
2020-01-19 18:18:10,-8.938,-1.688,321.625,0.986,-28.0,-151.0,974.0
2020-01-19 18:18:10.100000,-8.938,-1.688,321.625,0.984,-28.0,-150.0,973.0
2020-01-19 18:18:10.200000,-8.938,-1.688,321.625,0.984,-28.0,-150.0,973.0
2020-01-19 18:18:10.300000,-8.938,-1.688,321.625,0.986,-28.0,-151.0,974.0
2020-01-19 18:18:10.400000,-8.938,-1.688,321.625,0.984,-28.0,-150.0,973.0
2020-01-19 18:18:10.500000,-8.938,-1.688,321.625,0.984,-28.0,-150.0,973.0
2020-01-19 18:18:10.600000,-8.938,-1.688,321.625,0.986,-28.0,-151.0,974.0
2020-01-19 18:18:10.700000,-8.938,-1.688,321.625,0.984,-28.0,-150.0,973.0
2020-01-19 18:18:10.800000,-8.938,-1.688,321.625,0.984,-28.0,-150.0,973.0
2020-01-19 18:18:10.900000,-8.938,-1.688,321.625,0.986,-28.0,-151.0,974.0
2020-01-19 18:18:11,-8.938,-1.688,321.625,0.985,-28.0,-150.0,974.0
2020-01-19 18:18:11.100000,-8.938,-1.688,321.625,0.985,-28.0,-150.0,974.0
2020-01-19 18:18:11.200000,-8.938,-1.688,321.625,0.985,-28.0,-150.0,974.0
2020-01-19 18:18:11.300000,-8.938,-1.688,321.625,0.984,-27.0,-150.0,973.0
2020-01-19 18:18:11.400000,-8.938,-1.688,321.625,0.985,-28.0,-150.0,974.0
2020-01-19 18:18:11.500000,-8.938,-1.688,321.625,0.985,-28.0,-150.0,974.0
2020-01-19 18:18:11.600000,-8.938,-1.688,321.625,0.986,-29.0,-149.0,975.0
2020-01-19 18:18:11.700000,-8.938,-1.688,321.625,0.985,-28.0,-151.0,973.0
2020-01-19 18:18:11.800000,-8.938,-1.688,321.625,0.985,-28.0,-151.0,973.0
2020-01-19 18:18:11.900000,-8.938,-1.688,321.625,0.985,-28.0,-151.0,973.0
2020-01-19 18:18:12,-8.938,-1.688,321.625,0.986,-28.0,-151.0,974.0
2020-01-19 18:18:12.100000,-8.938,-1.688,321.625,0.986,-28.0,-151.0,974.0
2020-01-19 18:18:12.200000,-8.938,-1.688,321.625,0.986,-28.0,-151.0,974.0
2020-01-19 18:18:12.300000,-8.938,-1.688,321.625,0.985,-28.0,-151.0,973.0
2020-01-19 18:18:12.400000,-8.938,-1.688,321.625,0.985,-28.0,-151.0,973.0
2020-01-19 18:18:12.500000,-8.938,-1.688,321.625,0.985,-28.0,-150.0,974.0
2020-01-19 18:18:12.600000,-8.938,-1.688,321.625,0.986,-28.0,-150.0,975.0
2020-01-19 18:18:12.700000,-8.938,-1.688,321.625,0.986,-28.0,-150.0,975.0
2020-01-19 18:18:12.800000,-8.938,-1.688,321.625,0.985,-28.0,-151.0,973.0
2020-01-19 18:18:12.900000,-8.938,-1.688,321.625,0.985,-28.0,-151.0,973.0
2020-01-19 18:18:13,-8.938,-1.688,321.625,0.985,-28.0,-151.0,973.0
2020-01-19 18:18:13.100000,-8.938,-1.688,321.625,0.984,-28.0,-150.0,973.0
2020-01-19 18:18:13.200000,-8.938,-1.688,321.625,0.986,-28.0,-151.0,974.0
2020-01-19 18:18:13.300000,-8.938,-1.688,321.625,0.986,-28.0,-151.0,974.0
2020-01-19 18:18:13.400000,-8.938,-1.688,321.625,0.985,-28.0,-150.0,974.0
2020-01-19 18:18:13.500000,-8.938,-1.688,321.625,0.985,-28.0,-150.0,974.0
2020-01-19 18:18:13.600000,-8.938,-1.688,321.625,0.985,-28.0,-150.0,974.0
2020-01-19 18:18:13.700000,-8.938,-1.688,321.625,0.985,-28.0,-150.0,974.0
2020-01-19 18:18:13.800000,-8.938,-1.688,321.625,0.986,-28.0,-151.0,974.0
2020-01-19 18:18:13.900000,-8.938,-1.688,321.625,0.986,-28.0,-151.0,974.0
2020-01-19 18:18:14,-8.938,-1.688,321.625,0.985,-28.0,-151.0,973.0
2020-01-19 18:18:14.100000,-8.938,-1.688,321.625,0.985,-28.0,-151.0,973.0
2020-01-19 18:18:14.200000,-8.938,-1.688,321.625,0.985,-28.0,-151.0,973.0
2020-01-19 18:18:14.300000,-8.938,-1.688,321.625,0.986,-28.0,-151.0,974.0
2020-01-19 18:18:14.400000,-8.938,-1.688,321.625,0.986,-27.0,-151.0,974.0
2020-01-19 18:18:14.500000,-8.938,-1.688,321.625,0.986,-27.0,-151.0,974.0
2020-01-19 18:18:14.600000,-8.938,-1.688,321.625,0.984,-28.0,-150.0,973.0
2020-01-19 18:18:14.700000,-8.938,-1.688,321.625,0.985,-28.0,-151.0,973.0
2020-01-19 18:18:14.800000,-8.938,-1.688,321.625,0.985,-28.0,-151.0,973.0
2020-01-19 18:18:14.900000,-8.938,-1.688,321.625,0.986,-28.0,-151.0,974.0
2020-01-19 18:18:15,-8.938,-1.688,321.625,0.985,-28.0,-150.0,974.0
2020-01-19 18:18:15.100000,-8.938,-1.688,321.625,0.985,-28.0,-150.0,974.0
2020-01-19 18:18:15.200000,-8.938,-1.688,321.625,0.986,-28.0,-151.0,974.0
2020-01-19 18:18:15.300000,-8.938,-1.688,321.625,0.986,-28.0,-151.0,974.0
2020-01-19 18:18:15.400000,-8.938,-1.688,321.625,0.986,-28.0,-151.0,974.0
2020-01-19 18:18:15.500000,-8.938,-1.688,321.625,0.984,-28.0,-150.0,973.0
2020-01-19 18:18:15.600000,-8.938,-1.688,321.625,0.985,-28.0,-151.0,973.0
2020-01-19 18:18:15.700000,-8.938,-1.688,321.625,0.985,-28.0,-151.0,973.0
2020-01-19 18:18:15.800000,-8.938,-1.688,321.625,0.985,-28.0,-150.0,974.0
2020-01-19 18:18:15.900000,-8.938,-1.688,321.625,0.986,-28.0,-151.0,974.0
2020-01-19 18:18:16,-8.938,-1.688,321.625,0.986,-28.0,-151.0,974.0
2020-01-19 18:18:16.100000,-8.938,-1.688,321.625,0.986,-27.0,-151.0,974.0
2020-01-19 18:18:16.200000,-8.938,-1.688,321.625,0.984,-29.0,-150.0,973.0
2020-01-19 18:18:16.300000,-8.938,-1.688,321.625,0.984,-29.0,-150.0,973.0
2020-01-19 18:18:16.400000,-8.938,-1.688,321.625,0.985,-28.0,-151.0,973.0
2020-01-19 18:18:16.500000,-8.938,-1.688,321.625,0.985,-28.0,-151.0,973.0
2020-01-19 18:18:16.600000,-8.938,-1.688,321.625,0.985,-28.0,-151.0,973.0
2020-01-19 18:18:16.700000,-8.938,-1.688,321.625,0.986,-27.0,-151.0,974.0
2020-01-19 18:18:16.800000,-8.938,-1.688,321.625,0.985,-28.0,-150.0,974.0
2020-01-19 18:18:16.900000,-8.938,-1.688,321.625,0.985,-28.0,-150.0,974.0
2020-01-19 18:18:17,-8.938,-1.688,321.625,0.985,-28.0,-151.0,973.0
2020-01-19 18:18:17.100000,-8.938,-1.688,321.625,0.986,-28.0,-151.0,974.0
2020-01-19 18:18:17.200000,-8.938,-1.688,321.625,0.986,-28.0,-151.0,974.0
2020-01-19 18:18:17.300000,-8.938,-1.688,321.625,0.984,-29.0,-150.0,973.0
2020-01-19 18:18:17.400000,-8.938,-1.688,321.625,0.985,-28.0,-150.0,974.0
2020-01-19 18:18:17.500000,-8.938,-1.688,321.625,0.985,-28.0,-150.0,974.0
2020-01-19 18:18:17.600000,-8.938,-1.688,321.625,0.984,-28.0,-150.0,973.0
2020-01-19 18:18:17.700000,-8.938,-1.688,321.625,0.985,-28.0,-150.0,974.0
2020-01-19 18:18:17.800000,-8.938,-1.688,321.625,0.985,-28.0,-150.0,974.0
2020-01-19 18:18:17.900000,-8.938,-1.688,321.625,0.986,-27.0,-151.0,974.0
2020-01-19 18:18:18,-8.938,-1.688,321.625,0.986,-28.0,-151.0,974.0
2020-01-19 18:18:18.100000,-8.938,-1.688,321.625,0.986,-28.0,-151.0,974.0
2020-01-19 18:18:18.200000,-8.938,-1.688,321.625,0.986,-27.0,-151.0,974.0
2020-01-19 18:18:18.300000,-8.938,-1.688,321.625,0.985,-29.0,-150.0,974.0
2020-01-19 18:18:18.400000,-8.938,-1.688,321.625,0.985,-29.0,-150.0,974.0
2020-01-19 18:18:18.500000,-8.938,-1.688,321.625,0.986,-27.0,-151.0,974.0
2020-01-19 18:18:18.600000,-8.938,-1.688,321.625,0.984,-29.0,-150.0,973.0
2020-01-19 18:18:18.700000,-8.938,-1.688,321.625,0.984,-29.0,-150.0,973.0
2020-01-19 18:18:18.800000,-8.938,-1.688,321.625,0.984,-28.0,-149.0,973.0
2020-01-19 18:18:18.900000,-8.938,-1.688,321.625,0.986,-28.0,-151.0,974.0
2020-01-19 18:18:19,-8.938,-1.688,321.625,0.986,-28.0,-151.0,974.0
2020-01-19 18:18:19.100000,-8.938,-1.688,321.625,0.985,-28.0,-151.0,973.0
2020-01-19 18:18:19.200000,-8.938,-1.688,321.625,0.986,-27.0,-149.0,975.0
2020-01-19 18:18:19.300000,-8.938,-1.688,321.625,0.986,-27.0,-149.0,975.0
2020-01-19 18:18:19.400000,-8.938,-1.688,321.625,0.984,-29.0,-150.0,973.0
2020-01-19 18:18:19.500000,-8.938,-1.688,321.625,0.985,-27.0,-152.0,973.0
2020-01-19 18:18:19.600000,-8.938,-1.688,321.625,0.985,-27.0,-152.0,973.0
2020-01-19 18:18:19.700000,-8.938,-1.688,321.625,0.986,-27.0,-151.0,975.0
2020-01-19 18:18:19.800000,-8.938,-1.688,321.625,0.984,-30.0,-148.0,973.0
2020-01-19 18:18:19.900000,-8.938,-1.688,321.625,0.984,-30.0,-148.0,973.0
2020-01-19 18:18:20,-8.938,-1.688,321.625,0.986,-28.0,-152.0,974.0
2020-01-19 18:18:20.100000,-8.938,-1.688,321.625,0.986,-28.0,-152.0,974.0
2020-01-19 18:18:20.200000,-8.938,-1.688,321.625,0.986,-28.0,-152.0,974.0
2020-01-19 18:18:20.300000,-8.938,-1.688,321.625,0.985,-28.0,-147.0,974.0
2020-01-19 18:18:20.400000,-8.938,-1.688,321.625,0.985,-29.0,-151.0,973.0
2020-01-19 18:18:20.500000,-8.938,-1.688,321.625,0.985,-29.0,-151.0,973.0
2020-01-19 18:18:20.600000,-8.938,-1.688,321.625,0.986,-28.0,-153.0,974.0
2020-01-19 18:18:20.700000,-8.938,-1.688,321.625,0.985,-27.0,-150.0,974.0
2020-01-19 18:18:20.800000,-8.938,-1.688,321.625,0.985,-27.0,-150.0,974.0
2020-01-19 18:18:20.900000,-8.938,-1.688,321.625,0.985,-30.0,-149.0,974.0
2020-01-19 18:18:21,-8.938,-1.688,321.625,0.985,-28.0,-152.0,973.0
2020-01-19 18:18:21.100000,-8.938,-1.688,321.625,0.985,-28.0,-152.0,973.0
2020-01-19 18:18:21.200000,-8.938,-1.688,321.625,0.985,-28.0,-152.0,973.0
2020-01-19 18:18:21.300000,-8.938,-1.688,321.625,0.986,-28.0,-148.0,975.0
2020-01-19 18:18:21.400000,-8.938,-1.688,321.625,0.986,-28.0,-148.0,975.0
2020-01-19 18:18:21.500000,-8.938,-1.688,321.625,0.985,-29.0,-151.0,973.0
2020-01-19 18:18:21.600000,-8.938,-1.688,321.625,0.986,-28.0,-151.0,974.0
2020-01-19 18:18:21.700000,-8.938,-1.688,321.625,0.986,-28.0,-151.0,974.0
2020-01-19 18:18:21.800000,-8.938,-1.688,321.625,0.987,-27.0,-150.0,976.0
2020-01-19 18:18:21.900000,-8.938,-1.688,321.625,0.984,-30.0,-151.0,972.0
2020-01-19 18:18:22,-8.938,-1.688,321.625,0.984,-30.0,-151.0,972.0
2020-01-19 18:18:22.100000,-8.938,-1.688,321.625,0.986,-27.0,-152.0,974.0
2020-01-19 18:18:22.200000,-8.938,-1.688,321.625,0.986,-27.0,-151.0,974.0
2020-01-19 18:18:22.300000,-8.938,-1.688,321.625,0.986,-27.0,-151.0,974.0
2020-01-19 18:18:22.400000,-8.938,-1.688,321.625,0.985,-31.0,-148.0,974.0
2020-01-19 18:18:22.500000,-8.938,-1.688,321.625,0.985,-28.0,-151.0,973.0
2020-01-19 18:18:22.600000,-8.938,-1.688,321.625,0.985,-28.0,-151.0,973.0
2020-01-19 18:18:22.700000,-8.938,-1.688,321.625,0.985,-27.0,-152.0,973.0
2020-01-19 18:18:22.800000,-8.938,-1.688,321.625,0.986,-27.0,-149.0,975.0
2020-01-19 18:18:22.900000,-8.938,-1.688,321.625,0.986,-27.0,-149.0,975.0
2020-01-19 18:18:23,-8.938,-1.688,321.625,0.983,-30.0,-150.0,972.0
2020-01-19 18:18:23.100000,-8.938,-1.688,321.625,0.985,-27.0,-152.0,973.0
2020-01-19 18:18:23.200000,-8.938,-1.688,321.625,0.985,-27.0,-152.0,973.0
2020-01-19 18:18:23.300000,-8.938,-1.688,321.625,0.986,-27.0,-151.0,975.0
2020-01-19 18:18:23.400000,-8.938,-1.688,321.625,0.985,-30.0,-149.0,974.0
2020-01-19 18:18:23.500000,-8.938,-1.688,321.625,0.985,-30.0,-149.0,974.0
2020-01-19 18:18:23.600000,-8.938,-1.688,321.625,0.986,-28.0,-152.0,974.0
2020-01-19 18:18:23.700000,-8.938,-1.688,321.625,0.986,-27.0,-152.0,974.0
2020-01-19 18:18:23.800000,-8.938,-1.688,321.625,0.986,-27.0,-152.0,974.0
2020-01-19 18:18:23.900000,-8.938,-1.688,321.625,0.985,-29.0,-148.0,974.0
2020-01-19 18:18:24,-8.938,-1.688,321.625,0.986,-28.0,-151.0,974.0
2020-01-19 18:18:24.100000,-8.938,-1.688,321.625,0.986,-28.0,-151.0,974.0
2020-01-19 18:18:24.200000,-8.938,-1.688,321.625,0.984,-28.0,-152.0,972.0
2020-01-19 18:18:24.300000,-8.938,-1.688,321.625,0.986,-27.0,-149.0,975.0
2020-01-19 18:18:24.400000,-8.938,-1.688,321.625,0.986,-27.0,-149.0,975.0
2020-01-19 18:18:24.500000,-8.938,-1.688,321.625,0.985,-29.0,-149.0,974.0
2020-01-19 18:18:24.600000,-8.938,-1.688,321.625,0.985,-28.0,-153.0,973.0
2020-01-19 18:18:24.700000,-8.938,-1.688,321.625,0.985,-28.0,-153.0,973.0
2020-01-19 18:18:24.800000,-8.938,-1.688,321.625,0.986,-27.0,-151.0,974.0
2020-01-19 18:18:24.900000,-8.938,-1.688,321.625,0.985,-30.0,-149.0,974.0
2020-01-19 18:18:25,-8.938,-1.688,321.625,0.985,-30.0,-149.0,974.0
2020-01-19 18:18:25.100000,-8.938,-1.688,321.625,0.986,-28.0,-152.0,974.0
2020-01-19 18:18:25.200000,-8.938,-1.688,321.625,0.985,-27.0,-153.0,973.0
2020-01-19 18:18:25.300000,-8.938,-1.688,321.625,0.985,-27.0,-153.0,973.0
2020-01-19 18:18:25.400000,-8.938,-1.688,321.625,0.985,-29.0,-148.0,974.0
2020-01-19 18:18:25.500000,-8.938,-1.688,321.625,0.987,-28.0,-151.0,975.0
2020-01-19 18:18:25.600000,-8.938,-1.688,321.625,0.987,-28.0,-151.0,975.0
2020-01-19 18:18:25.700000,-8.938,-1.688,321.625,0.986,-28.0,-152.0,974.0
2020-01-19 18:18:25.800000,-8.938,-1.688,321.625,0.984,-28.0,-150.0,973.0
2020-01-19 18:18:25.900000,-8.938,-1.688,321.625,0.984,-28.0,-150.0,973.0
2020-01-19 18:18:26,-8.938,-1.688,321.625,0.985,-29.0,-150.0,974.0
2020-01-19 18:18:26.100000,-8.938,-1.688,321.625,0.985,-28.0,-151.0,973.0
2020-01-19 18:18:26.200000,-8.938,-1.688,321.625,0.985,-28.0,-151.0,973.0
2020-01-19 18:18:26.300000,-8.938,-1.688,321.625,0.986,-28.0,-151.0,974.0
2020-01-19 18:18:26.400000,-8.938,-1.688,321.625,0.986,-28.0,-151.0,974.0
2020-01-19 18:18:26.500000,-8.938,-1.688,321.625,0.986,-28.0,-151.0,974.0
2020-01-19 18:18:26.600000,-8.938,-1.688,321.625,0.984,-29.0,-150.0,973.0
2020-01-19 18:18:26.700000,-8.938,-1.688,321.625,0.986,-27.0,-151.0,975.0
2020-01-19 18:18:26.800000,-8.938,-1.688,321.625,0.986,-27.0,-151.0,975.0
2020-01-19 18:18:26.900000,-8.938,-1.688,321.625,0.985,-28.0,-151.0,973.0
2020-01-19 18:18:27,-8.938,-1.688,321.625,0.984,-28.0,-150.0,973.0
2020-01-19 18:18:27.100000,-8.938,-1.688,321.625,0.984,-28.0,-150.0,973.0
2020-01-19 18:18:27.200000,-8.938,-1.688,321.625,0.986,-28.0,-151.0,974.0
2020-01-19 18:18:27.300000,-8.938,-1.688,321.625,0.986,-28.0,-151.0,974.0
2020-01-19 18:18:27.400000,-8.938,-1.688,321.625,0.986,-28.0,-151.0,974.0
2020-01-19 18:18:27.500000,-8.938,-1.688,321.625,0.985,-29.0,-150.0,974.0
2020-01-19 18:18:27.600000,-8.938,-1.688,321.625,0.985,-28.0,-150.0,974.0
2020-01-19 18:18:27.700000,-8.938,-1.688,321.625,0.985,-28.0,-150.0,974.0
2020-01-19 18:18:27.800000,-8.938,-1.688,321.625,0.985,-28.0,-150.0,974.0
2020-01-19 18:18:27.900000,-8.938,-1.688,321.625,0.985,-28.0,-150.0,974.0
2020-01-19 18:18:28,-8.938,-1.688,321.625,0.985,-28.0,-150.0,974.0
2020-01-19 18:18:28.100000,-8.938,-1.688,321.625,0.985,-28.0,-150.0,974.0
2020-01-19 18:18:28.200000,-8.938,-1.688,321.625,0.986,-28.0,-151.0,974.0
2020-01-19 18:18:28.300000,-8.938,-1.688,321.625,0.986,-28.0,-151.0,974.0
2020-01-19 18:18:28.400000,-8.938,-1.688,321.625,0.986,-28.0,-151.0,974.0
2020-01-19 18:18:28.500000,-8.938,-1.688,321.625,0.986,-28.0,-151.0,974.0
2020-01-19 18:18:28.600000,-8.938,-1.688,321.625,0.986,-28.0,-151.0,974.0
2020-01-19 18:18:28.700000,-8.938,-1.688,321.625,0.986,-28.0,-151.0,974.0
2020-01-19 18:18:28.800000,-8.938,-1.688,321.625,0.986,-27.0,-151.0,974.0
2020-01-19 18:18:28.900000,-8.938,-1.688,321.625,0.986,-27.0,-151.0,974.0
2020-01-19 18:18:29,-8.938,-1.688,321.625,0.987,-28.0,-151.0,975.0
2020-01-19 18:18:29.100000,-8.938,-1.688,321.625,0.985,-28.0,-150.0,974.0
2020-01-19 18:18:29.200000,-8.938,-1.688,321.625,0.985,-28.0,-150.0,974.0
2020-01-19 18:18:29.300000,-8.938,-1.688,321.625,0.984,-28.0,-150.0,973.0
2020-01-19 18:18:29.400000,-8.938,-1.688,321.625,0.985,-28.0,-150.0,974.0
2020-01-19 18:18:29.500000,-8.938,-1.688,321.625,0.985,-28.0,-150.0,974.0
2020-01-19 18:18:29.600000,-8.938,-1.688,321.625,0.985,-28.0,-150.0,974.0
2020-01-19 18:18:29.700000,-8.938,-1.688,321.625,0.986,-28.0,-151.0,974.0
2020-01-19 18:18:29.800000,-8.938,-1.688,321.625,0.986,-28.0,-151.0,974.0
2020-01-19 18:18:29.900000,-8.938,-1.688,321.625,0.985,-28.0,-150.0,974.0
2020-01-19 18:18:30,-8.938,-1.688,321.625,0.986,-28.0,-151.0,974.0
2020-01-19 18:18:30.100000,-8.938,-1.688,321.625,0.986,-28.0,-151.0,974.0
2020-01-19 18:18:30.200000,-8.938,-1.688,321.625,0.984,-29.0,-149.0,973.0
2020-01-19 18:18:30.300000,-8.938,-1.688,321.625,0.986,-27.0,-151.0,974.0
2020-01-19 18:18:30.400000,-8.938,-1.688,321.625,0.986,-27.0,-151.0,974.0
2020-01-19 18:18:30.500000,-8.938,-1.688,321.625,0.986,-27.0,-151.0,974.0
2020-01-19 18:18:30.600000,-8.938,-1.688,321.625,0.985,-29.0,-150.0,974.0
2020-01-19 18:18:30.700000,-8.938,-1.688,321.625,0.985,-29.0,-150.0,974.0
2020-01-19 18:18:30.800000,-8.938,-1.688,321.625,0.984,-28.0,-150.0,973.0
2020-01-19 18:18:30.900000,-8.938,-1.688,321.625,0.986,-28.0,-151.0,974.0
2020-01-19 18:18:31,-8.938,-1.688,321.625,0.986,-28.0,-151.0,974.0
2020-01-19 18:18:31.100000,-8.938,-1.688,321.625,0.984,-28.0,-150.0,973.0
2020-01-19 18:18:31.200000,-8.938,-1.688,321.625,0.985,-28.0,-149.0,974.0
2020-01-19 18:18:31.300000,-8.938,-1.688,321.625,0.985,-28.0,-149.0,974.0
2020-01-19 18:18:31.400000,-8.938,-1.688,321.625,0.986,-29.0,-152.0,974.0
2020-01-19 18:18:31.500000,-8.938,-1.688,321.625,0.985,-28.0,-150.0,974.0
2020-01-19 18:18:31.600000,-8.938,-1.688,321.625,0.985,-28.0,-150.0,974.0
2020-01-19 18:18:31.700000,-8.938,-1.688,321.625,0.985,-28.0,-150.0,974.0
2020-01-19 18:18:31.800000,-8.938,-1.688,321.625,0.986,-28.0,-151.0,974.0
2020-01-19 18:18:31.900000,-8.938,-1.688,321.625,0.986,-28.0,-151.0,974.0
2020-01-19 18:18:32,-8.938,-1.688,321.625,0.985,-29.0,-150.0,974.0
2020-01-19 18:18:32.100000,-8.938,-1.688,321.625,0.985,-28.0,-150.0,974.0
2020-01-19 18:18:32.200000,-8.938,-1.688,321.625,0.985,-28.0,-150.0,974.0
2020-01-19 18:18:32.300000,-8.938,-1.688,321.625,0.985,-28.0,-151.0,973.0
2020-01-19 18:18:32.400000,-8.938,-1.688,321.625,0.985,-28.0,-150.0,974.0
2020-01-19 18:18:32.500000,-8.938,-1.688,321.625,0.985,-28.0,-150.0,974.0
2020-01-19 18:18:32.600000,-8.938,-1.688,321.625,0.985,-29.0,-150.0,974.0
2020-01-19 18:18:32.700000,-8.938,-1.688,321.625,0.985,-29.0,-150.0,974.0
2020-01-19 18:18:32.800000,-8.938,-1.688,321.625,0.985,-29.0,-150.0,974.0
2020-01-19 18:18:32.900000,-8.938,-1.688,321.625,0.986,-27.0,-151.0,975.0
2020-01-19 18:18:33,-8.938,-1.688,321.625,0.985,-29.0,-150.0,974.0
2020-01-19 18:18:33.100000,-8.938,-1.688,321.625,0.985,-29.0,-150.0,974.0
2020-01-19 18:18:33.200000,-8.938,-1.688,321.625,0.985,-28.0,-150.0,974.0
2020-01-19 18:18:33.300000,-8.938,-1.688,321.625,0.986,-28.0,-151.0,974.0
2020-01-19 18:18:33.400000,-8.938,-1.688,321.625,0.986,-28.0,-151.0,974.0
2020-01-19 18:18:33.500000,-8.938,-1.688,321.625,0.985,-28.0,-151.0,973.0
2020-01-19 18:18:33.600000,-8.938,-1.688,321.625,0.985,-28.0,-150.0,974.0
2020-01-19 18:18:33.700000,-8.938,-1.688,321.625,0.985,-28.0,-150.0,974.0
2020-01-19 18:18:33.800000,-8.938,-1.688,321.625,0.986,-28.0,-151.0,974.0
2020-01-19 18:18:33.900000,-8.938,-1.688,321.625,0.986,-29.0,-150.0,975.0
2020-01-19 18:18:34,-8.938,-1.688,321.625,0.986,-29.0,-150.0,975.0
2020-01-19 18:18:34.100000,-8.938,-1.688,321.625,0.986,-28.0,-150.0,975.0
2020-01-19 18:18:34.200000,-8.938,-1.688,321.625,0.985,-28.0,-151.0,973.0
2020-01-19 18:18:34.300000,-8.938,-1.688,321.625,0.985,-28.0,-151.0,973.0
2020-01-19 18:18:34.400000,-8.938,-1.688,321.625,0.985,-28.0,-150.0,974.0
2020-01-19 18:18:34.500000,-8.938,-1.688,321.625,0.985,-29.0,-149.0,974.0
2020-01-19 18:18:34.600000,-8.938,-1.688,321.625,0.985,-29.0,-149.0,974.0
2020-01-19 18:18:34.700000,-8.938,-1.688,321.625,0.984,-28.0,-150.0,973.0
2020-01-19 18:18:34.800000,-8.938,-1.688,321.625,0.986,-28.0,-152.0,974.0
2020-01-19 18:18:34.900000,-8.938,-1.688,321.625,0.986,-28.0,-152.0,974.0
2020-01-19 18:18:35,-8.938,-1.688,321.625,0.985,-29.0,-150.0,974.0
2020-01-19 18:18:35.100000,-8.938,-1.688,321.625,0.985,-28.0,-149.0,974.0
2020-01-19 18:18:35.200000,-8.938,-1.688,321.625,0.985,-28.0,-149.0,974.0
2020-01-19 18:18:35.300000,-8.938,-1.688,321.625,0.985,-28.0,-152.0,973.0
2020-01-19 18:18:35.400000,-8.938,-1.688,321.625,0.985,-28.0,-150.0,974.0
2020-01-19 18:18:35.500000,-8.938,-1.688,321.625,0.985,-28.0,-150.0,974.0
2020-01-19 18:18:35.600000,-8.938,-1.688,321.625,0.985,-29.0,-148.0,974.0
2020-01-19 18:18:35.700000,-8.938,-1.688,321.625,0.985,-28.0,-152.0,973.0
2020-01-19 18:18:35.800000,-8.938,-1.688,321.625,0.985,-28.0,-152.0,973.0
2020-01-19 18:18:35.900000,-8.938,-1.688,321.625,0.986,-27.0,-151.0,974.0
2020-01-19 18:18:36,-8.938,-1.688,321.625,0.985,-29.0,-149.0,974.0
2020-01-19 18:18:36.100000,-8.938,-1.688,321.625,0.985,-29.0,-149.0,974.0
2020-01-19 18:18:36.200000,-8.938,-1.688,321.625,0.986,-28.0,-151.0,974.0
2020-01-19 18:18:36.300000,-8.938,-1.688,321.625,0.986,-28.0,-152.0,974.0
2020-01-19 18:18:36.400000,-8.938,-1.688,321.625,0.986,-28.0,-152.0,974.0
2020-01-19 18:18:36.500000,-8.938,-1.688,321.625,0.985,-29.0,-149.0,974.0
2020-01-19 18:18:36.600000,-8.938,-1.688,321.625,0.985,-28.0,-150.0,974.0
2020-01-19 18:18:36.700000,-8.938,-1.688,321.625,0.985,-28.0,-150.0,974.0
2020-01-19 18:18:36.800000,-8.938,-1.688,321.625,0.986,-27.0,-151.0,974.0
2020-01-19 18:18:36.900000,-8.938,-1.688,321.625,0.986,-28.0,-150.0,975.0
2020-01-19 18:18:37,-8.938,-1.688,321.625,0.986,-28.0,-150.0,975.0
2020-01-19 18:18:37.100000,-8.938,-1.688,321.625,0.985,-29.0,-149.0,974.0
2020-01-19 18:18:37.200000,-8.938,-1.688,321.625,0.986,-28.0,-151.0,974.0
2020-01-19 18:18:37.300000,-8.938,-1.688,321.625,0.986,-28.0,-151.0,974.0
2020-01-19 18:18:37.400000,-8.938,-1.688,321.625,0.985,-29.0,-149.0,974.0
2020-01-19 18:18:37.500000,-8.938,-1.688,321.625,0.985,-28.0,-151.0,973.0
2020-01-19 18:18:37.600000,-8.938,-1.688,321.625,0.985,-28.0,-151.0,973.0
2020-01-19 18:18:37.700000,-8.938,-1.688,321.625,0.986,-28.0,-151.0,974.0
2020-01-19 18:18:37.800000,-8.938,-1.688,321.625,0.985,-29.0,-150.0,974.0
2020-01-19 18:18:37.900000,-8.938,-1.688,321.625,0.985,-29.0,-150.0,974.0
2020-01-19 18:18:38,-8.938,-1.688,321.625,0.984,-29.0,-150.0,973.0
2020-01-19 18:18:38.100000,-8.938,-1.688,321.625,0.986,-28.0,-150.0,975.0
2020-01-19 18:18:38.200000,-8.938,-1.688,321.625,0.986,-28.0,-150.0,975.0
2020-01-19 18:18:38.300000,-8.938,-1.688,321.625,0.985,-28.0,-150.0,974.0
2020-01-19 18:18:38.400000,-8.938,-1.688,321.625,0.986,-28.0,-150.0,975.0
2020-01-19 18:18:38.500000,-8.938,-1.688,321.625,0.986,-28.0,-150.0,975.0
2020-01-19 18:18:38.600000,-8.938,-1.688,321.625,0.986,-28.0,-151.0,974.0
2020-01-19 18:18:38.700000,-8.938,-1.688,321.625,0.986,-28.0,-151.0,974.0
2020-01-19 18:18:38.800000,-8.938,-1.688,321.625,0.986,-28.0,-151.0,974.0
2020-01-19 18:18:38.900000,-8.938,-1.688,321.625,0.986,-28.0,-150.0,975.0
2020-01-19 18:18:39,-8.938,-1.688,321.625,0.986,-29.0,-149.0,975.0
2020-01-19 18:18:39.100000,-8.938,-1.688,321.625,0.986,-29.0,-149.0,975.0
2020-01-19 18:18:39.200000,-8.938,-1.688,321.625,0.985,-28.0,-151.0,973.0
2020-01-19 18:18:39.300000,-8.938,-1.688,321.625,0.987,-28.0,-151.0,975.0
2020-01-19 18:18:39.400000,-8.938,-1.688,321.625,0.987,-28.0,-151.0,975.0
2020-01-19 18:18:39.500000,-8.938,-1.688,321.625,0.984,-29.0,-150.0,973.0
2020-01-19 18:18:39.600000,-8.938,-1.688,321.625,0.986,-28.0,-151.0,974.0
2020-01-19 18:18:39.700000,-8.938,-1.688,321.625,0.986,-28.0,-151.0,974.0
2020-01-19 18:18:39.800000,-8.938,-1.688,321.625,0.985,-28.0,-151.0,973.0
2020-01-19 18:18:39.900000,-8.938,-1.688,321.625,0.986,-28.0,-151.0,974.0
2020-01-19 18:18:40,-8.938,-1.688,321.625,0.986,-28.0,-151.0,974.0
2020-01-19 18:18:40.100000,-8.938,-1.688,321.625,0.985,-28.0,-150.0,974.0
2020-01-19 18:18:40.200000,-8.938,-1.688,321.625,0.985,-28.0,-150.0,974.0
2020-01-19 18:18:40.300000,-8.938,-1.688,321.625,0.985,-28.0,-150.0,974.0
2020-01-19 18:18:40.400000,-8.938,-1.688,321.625,0.985,-28.0,-149.0,974.0
2020-01-19 18:18:40.500000,-8.938,-1.688,321.625,0.985,-28.0,-150.0,974.0
2020-01-19 18:18:40.600000,-8.938,-1.688,321.625,0.985,-28.0,-150.0,974.0
2020-01-19 18:18:40.700000,-8.938,-1.688,321.625,0.985,-29.0,-150.0,974.0
2020-01-19 18:18:40.800000,-8.938,-1.688,321.625,0.986,-28.0,-151.0,974.0
2020-01-19 18:18:40.900000,-8.938,-1.688,321.625,0.986,-28.0,-151.0,974.0
2020-01-19 18:18:41,-8.938,-1.688,321.625,0.986,-29.0,-151.0,974.0
2020-01-19 18:18:41.100000,-8.938,-1.688,321.625,0.985,-29.0,-150.0,974.0
2020-01-19 18:18:41.200000,-8.938,-1.688,321.625,0.985,-29.0,-150.0,974.0
2020-01-19 18:18:41.300000,-8.938,-1.688,321.625,0.985,-28.0,-150.0,974.0
2020-01-19 18:18:41.400000,-8.938,-1.688,321.625,0.985,-29.0,-149.0,974.0
2020-01-19 18:18:41.500000,-8.938,-1.688,321.625,0.985,-29.0,-149.0,974.0
2020-01-19 18:18:41.600000,-8.938,-1.688,321.625,0.986,-28.0,-151.0,974.0
2020-01-19 18:18:41.700000,-8.938,-1.688,321.625,0.984,-28.0,-150.0,973.0
2020-01-19 18:18:41.800000,-8.938,-1.688,321.625,0.984,-28.0,-150.0,973.0
2020-01-19 18:18:41.900000,-8.938,-1.688,321.625,0.984,-29.0,-150.0,973.0
2020-01-19 18:18:42,-8.938,-1.688,321.625,0.985,-28.0,-150.0,974.0
2020-01-19 18:18:42.100000,-8.938,-1.688,321.625,0.985,-28.0,-150.0,974.0
2020-01-19 18:18:42.200000,-8.938,-1.688,321.625,0.986,-28.0,-150.0,975.0
2020-01-19 18:18:42.300000,-8.938,-1.688,321.625,0.985,-29.0,-150.0,974.0
2020-01-19 18:18:42.400000,-8.938,-1.688,321.625,0.985,-29.0,-150.0,974.0
2020-01-19 18:18:42.500000,-8.938,-1.688,321.625,0.986,-28.0,-151.0,974.0
2020-01-19 18:18:42.600000,-8.938,-1.688,321.625,0.985,-28.0,-150.0,974.0
2020-01-19 18:18:42.700000,-8.938,-1.688,321.625,0.985,-28.0,-150.0,974.0
2020-01-19 18:18:42.800000,-8.938,-1.688,321.625,0.986,-27.0,-149.0,975.0
2020-01-19 18:18:42.900000,-8.938,-1.688,321.625,0.986,-29.0,-151.0,974.0
2020-01-19 18:18:43,-8.938,-1.688,321.625,0.986,-29.0,-151.0,974.0
2020-01-19 18:18:43.100000,-8.938,-1.688,321.625,0.984,-29.0,-150.0,973.0
2020-01-19 18:18:43.200000,-8.938,-1.688,321.625,0.986,-27.0,-149.0,975.0
2020-01-19 18:18:43.300000,-8.938,-1.688,321.625,0.986,-27.0,-149.0,975.0
2020-01-19 18:18:43.400000,-8.938,-1.688,321.625,0.985,-30.0,-149.0,974.0
2020-01-19 18:18:43.500000,-8.938,-1.688,321.625,0.986,-28.0,-152.0,974.0
2020-01-19 18:18:43.600000,-8.938,-1.688,321.625,0.986,-28.0,-152.0,974.0
2020-01-19 18:18:43.700000,-8.938,-1.688,321.625,0.987,-26.0,-152.0,975.0
2020-01-19 18:18:43.800000,-8.938,-1.688,321.625,0.985,-31.0,-147.0,974.0
2020-01-19 18:18:43.900000,-8.938,-1.688,321.625,0.985,-31.0,-147.0,974.0
2020-01-19 18:18:44,-8.938,-1.688,321.625,0.986,-29.0,-151.0,974.0
2020-01-19 18:18:44.100000,-8.938,-1.688,321.625,0.985,-28.0,-152.0,973.0
2020-01-19 18:18:44.200000,-8.938,-1.688,321.625,0.985,-28.0,-152.0,973.0
2020-01-19 18:18:44.300000,-8.938,-1.688,321.625,0.986,-28.0,-149.0,975.0
2020-01-19 18:18:44.400000,-8.938,-1.688,321.625,0.986,-30.0,-150.0,975.0
2020-01-19 18:18:44.500000,-8.938,-1.688,321.625,0.986,-30.0,-150.0,975.0
2020-01-19 18:18:44.600000,-8.938,-1.688,321.625,0.986,-27.0,-152.0,974.0
2020-01-19 18:18:44.700000,-8.938,-1.688,321.625,0.984,-28.0,-149.0,973.0
2020-01-19 18:18:44.800000,-8.938,-1.688,321.625,0.984,-28.0,-149.0,973.0
2020-01-19 18:18:44.900000,-8.938,-1.688,321.625,0.985,-29.0,-148.0,974.0
2020-01-19 18:18:45,-8.938,-1.688,321.625,0.986,-28.0,-151.0,974.0
2020-01-19 18:18:45.100000,-8.938,-1.688,321.625,0.986,-28.0,-151.0,974.0
2020-01-19 18:18:45.200000,-8.938,-1.688,321.625,0.986,-27.0,-152.0,974.0
2020-01-19 18:18:45.300000,-8.938,-1.688,321.625,0.985,-29.0,-149.0,974.0
2020-01-19 18:18:45.400000,-8.938,-1.688,321.625,0.985,-29.0,-149.0,974.0
2020-01-19 18:18:45.500000,-8.938,-1.688,321.625,0.986,-29.0,-151.0,974.0
2020-01-19 18:18:45.600000,-8.938,-1.688,321.625,0.985,-28.0,-153.0,973.0
2020-01-19 18:18:45.700000,-8.938,-1.688,321.625,0.985,-28.0,-153.0,973.0
2020-01-19 18:18:45.800000,-8.938,-1.688,321.625,0.988,-28.0,-145.0,977.0
2020-01-19 18:18:45.900000,-8.938,-1.688,321.625,0.983,-31.0,-151.0,971.0
2020-01-19 18:18:46,-8.938,-1.688,321.625,0.983,-31.0,-151.0,971.0
2020-01-19 18:18:46.100000,-8.938,-1.688,321.625,0.987,-29.0,-151.0,975.0
2020-01-19 18:18:46.200000,-8.938,-1.563,321.625,0.985,-30.0,-152.0,973.0
2020-01-19 18:18:46.300000,-8.938,-1.563,321.625,0.985,-30.0,-152.0,973.0
2020-01-19 18:18:46.400000,-8.938,-1.75,321.625,0.986,-30.0,-149.0,975.0
2020-01-19 18:18:46.500000,-8.938,-1.75,321.625,0.962,-28.0,-143.0,951.0
2020-01-19 18:18:46.600000,-8.938,-1.75,321.625,0.962,-28.0,-143.0,951.0
2020-01-19 18:18:46.700000,-8.875,-1.75,321.625,0.994,-33.0,-150.0,983.0
2020-01-19 18:18:46.800000,-8.875,-1.75,321.625,0.987,-32.0,-147.0,976.0
2020-01-19 18:18:46.900000,-8.875,-1.75,321.625,0.987,-32.0,-147.0,976.0
2020-01-19 18:18:47,-8.875,-1.75,321.625,0.985,-30.0,-149.0,974.0
2020-01-19 18:18:47.100000,-8.875,-1.75,321.625,0.986,-36.0,-150.0,974.0
2020-01-19 18:18:47.200000,-8.875,-1.75,321.625,0.986,-36.0,-150.0,974.0
2020-01-19 18:18:47.300000,-8.875,-1.75,321.625,0.985,-33.0,-149.0,974.0
2020-01-19 18:18:47.400000,-8.875,-1.75,321.625,0.986,-33.0,-150.0,974.0
2020-01-19 18:18:47.500000,-8.875,-1.75,321.625,0.986,-33.0,-150.0,974.0
2020-01-19 18:18:47.600000,-8.875,-1.75,321.625,0.986,-34.0,-149.0,975.0
2020-01-19 18:18:47.700000,-8.875,-1.75,321.625,0.985,-33.0,-148.0,974.0
2020-01-19 18:18:47.800000,-8.875,-1.75,321.625,0.985,-33.0,-148.0,974.0
2020-01-19 18:18:47.900000,-8.875,-1.75,321.625,0.985,-34.0,-149.0,974.0
2020-01-19 18:18:48,-8.875,-1.75,321.625,0.986,-34.0,-149.0,975.0
2020-01-19 18:18:48.100000,-8.875,-1.75,321.625,0.986,-34.0,-149.0,975.0
2020-01-19 18:18:48.200000,-8.875,-1.75,321.625,0.985,-34.0,-148.0,974.0
2020-01-19 18:18:48.300000,-8.875,-1.75,321.625,0.985,-33.0,-149.0,974.0
2020-01-19 18:18:48.400000,-8.875,-1.75,321.625,0.985,-33.0,-149.0,974.0
2020-01-19 18:18:48.500000,-8.875,-1.75,321.625,0.986,-34.0,-148.0,975.0
2020-01-19 18:18:48.600000,-8.875,-1.75,321.625,0.985,-34.0,-149.0,974.0
2020-01-19 18:18:48.700000,-8.875,-1.75,321.625,0.985,-34.0,-149.0,974.0
2020-01-19 18:18:48.800000,-8.875,-1.75,321.625,0.985,-34.0,-149.0,974.0
2020-01-19 18:18:48.900000,-8.875,-1.75,321.625,0.985,-34.0,-148.0,974.0
2020-01-19 18:18:49,-8.875,-1.75,321.625,0.985,-34.0,-148.0,974.0
2020-01-19 18:18:49.100000,-8.875,-1.75,321.625,0.986,-34.0,-148.0,975.0
2020-01-19 18:18:49.200000,-8.875,-1.75,321.625,0.985,-34.0,-149.0,974.0
2020-01-19 18:18:49.300000,-8.875,-1.75,321.625,0.985,-34.0,-149.0,974.0
2020-01-19 18:18:49.400000,-8.875,-1.75,321.625,0.985,-34.0,-148.0,974.0
2020-01-19 18:18:49.500000,-8.875,-1.75,321.625,0.986,-34.0,-148.0,975.0
2020-01-19 18:18:49.600000,-8.875,-1.75,321.625,0.986,-34.0,-148.0,975.0
2020-01-19 18:18:49.700000,-8.875,-1.75,321.625,0.986,-34.0,-148.0,975.0
2020-01-19 18:18:49.800000,-8.875,-1.75,321.625,0.985,-34.0,-148.0,974.0
2020-01-19 18:18:49.900000,-8.875,-1.75,321.625,0.985,-34.0,-148.0,974.0
2020-01-19 18:18:50,-8.875,-1.75,321.625,0.986,-33.0,-148.0,975.0
2020-01-19 18:18:50.100000,-8.875,-1.75,321.625,0.985,-34.0,-148.0,974.0
2020-01-19 18:18:50.200000,-8.875,-1.75,321.625,0.985,-34.0,-148.0,974.0
2020-01-19 18:18:50.300000,-8.875,-1.75,321.625,0.985,-33.0,-149.0,974.0
2020-01-19 18:18:50.400000,-8.875,-1.75,321.625,0.985,-34.0,-148.0,974.0
2020-01-19 18:18:50.500000,-8.875,-1.75,321.625,0.985,-34.0,-148.0,974.0
2020-01-19 18:18:50.600000,-8.875,-1.75,321.625,0.986,-34.0,-149.0,975.0
2020-01-19 18:18:50.700000,-8.875,-1.75,321.625,0.985,-34.0,-149.0,974.0
2020-01-19 18:18:50.800000,-8.875,-1.75,321.625,0.985,-34.0,-149.0,974.0
2020-01-19 18:18:50.900000,-8.875,-1.75,321.625,0.985,-33.0,-149.0,974.0
2020-01-19 18:18:51,-8.875,-1.75,321.625,0.986,-34.0,-148.0,975.0
2020-01-19 18:18:51.100000,-8.875,-1.75,321.625,0.986,-34.0,-148.0,975.0
2020-01-19 18:18:51.200000,-8.875,-1.75,321.625,0.986,-33.0,-148.0,975.0
2020-01-19 18:18:51.300000,-8.875,-1.75,321.625,0.986,-32.0,-150.0,974.0
2020-01-19 18:18:51.400000,-8.875,-1.75,321.625,0.986,-32.0,-150.0,974.0
2020-01-19 18:18:51.500000,-8.75,-1.75,321.625,0.997,-37.0,-149.0,986.0
2020-01-19 18:18:51.600000,-8.75,-1.75,321.625,0.987,-32.0,-149.0,976.0
2020-01-19 18:18:51.700000,-8.75,-1.75,321.625,0.987,-32.0,-149.0,976.0
2020-01-19 18:18:51.800000,-8.938,-1.75,321.625,0.985,-33.0,-148.0,974.0
2020-01-19 18:18:51.900000,-8.938,-1.75,321.625,0.985,-32.0,-149.0,974.0
2020-01-19 18:18:52,-8.938,-1.75,321.625,0.985,-32.0,-149.0,974.0
2020-01-19 18:18:52.100000,-8.938,-1.75,321.625,0.985,-32.0,-149.0,974.0
2020-01-19 18:18:52.200000,-8.938,-1.75,321.625,0.985,-31.0,-150.0,974.0
2020-01-19 18:18:52.300000,-8.938,-1.75,321.625,0.985,-31.0,-150.0,974.0
2020-01-19 18:18:52.400000,-8.938,-1.75,321.625,0.985,-32.0,-147.0,974.0
2020-01-19 18:18:52.500000,-8.938,-1.75,321.625,0.983,-31.0,-150.0,972.0
2020-01-19 18:18:52.600000,-8.938,-1.75,321.625,0.99,-33.0,-146.0,979.0
2020-01-19 18:18:52.700000,-8.938,-1.75,321.625,0.99,-33.0,-146.0,979.0
2020-01-19 18:18:52.800000,-8.938,-1.75,321.625,0.987,-27.0,-151.0,976.0
2020-01-19 18:18:52.900000,-8.938,-1.75,321.625,0.987,-27.0,-151.0,976.0
2020-01-19 18:18:53,-8.938,-1.75,321.625,0.984,-29.0,-150.0,973.0
2020-01-19 18:18:53.100000,-8.938,-1.75,321.625,0.985,-31.0,-149.0,974.0
2020-01-19 18:18:53.200000,-8.938,-1.75,321.625,0.985,-31.0,-149.0,974.0
2020-01-19 18:18:53.300000,-8.938,-1.75,321.625,0.984,-30.0,-150.0,973.0
2020-01-19 18:18:53.400000,-8.938,-1.75,321.625,0.985,-30.0,-149.0,974.0
2020-01-19 18:18:53.500000,-8.938,-1.75,321.625,0.986,-29.0,-149.0,975.0
2020-01-19 18:18:53.600000,-8.938,-1.75,321.625,0.986,-29.0,-149.0,975.0
2020-01-19 18:18:53.700000,-8.938,-1.75,321.625,0.984,-30.0,-149.0,973.0
2020-01-19 18:18:53.800000,-8.938,-1.75,321.625,0.984,-30.0,-149.0,973.0
2020-01-19 18:18:53.900000,-8.938,-1.75,321.625,0.984,-30.0,-149.0,973.0
2020-01-19 18:18:54,-8.938,-1.75,321.625,0.985,-30.0,-149.0,974.0
2020-01-19 18:18:54.100000,-8.938,-1.75,321.625,0.985,-29.0,-150.0,974.0
2020-01-19 18:18:54.200000,-8.938,-1.75,321.625,0.985,-29.0,-150.0,974.0
2020-01-19 18:18:54.300000,-8.938,-1.75,321.625,0.984,-30.0,-149.0,973.0
2020-01-19 18:18:54.400000,-8.938,-1.75,321.625,0.984,-30.0,-149.0,973.0
2020-01-19 18:18:54.500000,-8.938,-1.75,321.625,0.986,-28.0,-149.0,975.0
2020-01-19 18:18:54.600000,-8.938,-1.75,321.625,0.986,-30.0,-149.0,975.0
2020-01-19 18:18:54.700000,-8.938,-1.75,321.625,0.984,-31.0,-149.0,973.0
2020-01-19 18:18:54.800000,-8.938,-1.75,321.625,0.984,-31.0,-149.0,973.0
2020-01-19 18:18:54.900000,-8.938,-1.75,321.625,0.986,-29.0,-148.0,975.0
2020-01-19 18:18:55,-8.938,-1.75,321.625,0.985,-31.0,-150.0,974.0
2020-01-19 18:18:55.100000,-8.938,-1.75,321.625,0.985,-31.0,-150.0,974.0
2020-01-19 18:18:55.200000,-8.938,-1.75,321.625,0.985,-30.0,-150.0,974.0
2020-01-19 18:18:55.300000,-8.938,-1.75,321.625,0.985,-29.0,-149.0,974.0
2020-01-19 18:18:55.400000,-8.938,-1.75,321.625,0.985,-29.0,-149.0,974.0
2020-01-19 18:18:55.500000,-8.938,-1.75,321.625,0.985,-30.0,-149.0,974.0
2020-01-19 18:18:55.600000,-8.938,-1.75,321.625,0.986,-29.0,-151.0,974.0
2020-01-19 18:18:55.700000,-8.938,-1.75,321.625,0.986,-29.0,-151.0,974.0
2020-01-19 18:18:55.800000,-8.938,-1.75,321.625,0.984,-30.0,-150.0,973.0
2020-01-19 18:18:55.900000,-8.938,-1.75,321.625,0.985,-29.0,-149.0,974.0
2020-01-19 18:18:56,-8.938,-1.75,321.625,0.985,-29.0,-149.0,974.0
2020-01-19 18:18:56.100000,-8.938,-1.75,321.625,0.985,-30.0,-150.0,974.0
2020-01-19 18:18:56.200000,-8.938,-1.75,321.625,0.985,-29.0,-150.0,974.0
2020-01-19 18:18:56.300000,-8.938,-1.75,321.625,0.985,-29.0,-150.0,974.0
2020-01-19 18:18:56.400000,-8.938,-1.75,321.625,0.986,-29.0,-149.0,975.0
2020-01-19 18:18:56.500000,-8.938,-1.75,321.625,0.986,-31.0,-148.0,975.0
2020-01-19 18:18:56.600000,-8.938,-1.75,321.625,0.986,-31.0,-148.0,975.0
2020-01-19 18:18:56.700000,-8.938,-1.75,321.625,0.985,-28.0,-151.0,973.0
2020-01-19 18:18:56.800000,-8.938,-1.75,321.625,0.984,-30.0,-149.0,973.0
2020-01-19 18:18:56.900000,-8.938,-1.75,321.625,0.984,-30.0,-149.0,973.0
2020-01-19 18:18:57,-8.938,-1.75,321.625,0.988,-28.0,-149.0,977.0
2020-01-19 18:18:57.100000,-8.938,-1.75,321.625,0.984,-31.0,-149.0,973.0
2020-01-19 18:18:57.200000,-8.938,-1.75,321.625,0.984,-31.0,-149.0,973.0
2020-01-19 18:18:57.300000,-8.938,-1.75,321.625,0.985,-29.0,-150.0,974.0
2020-01-19 18:18:57.400000,-8.938,-1.75,321.625,0.985,-29.0,-149.0,974.0
2020-01-19 18:18:57.500000,-8.938,-1.75,321.625,0.985,-29.0,-149.0,974.0
2020-01-19 18:18:57.600000,-8.938,-1.75,321.625,0.985,-31.0,-148.0,974.0
2020-01-19 18:18:57.700000,-8.938,-1.75,321.625,0.985,-28.0,-150.0,974.0
2020-01-19 18:18:57.800000,-8.938,-1.75,321.625,0.985,-28.0,-150.0,974.0
2020-01-19 18:18:57.900000,-8.938,-1.75,321.625,0.985,-28.0,-150.0,974.0
2020-01-19 18:18:58,-8.938,-1.75,321.625,0.986,-31.0,-149.0,975.0
2020-01-19 18:18:58.100000,-8.938,-1.75,321.625,0.986,-31.0,-149.0,975.0
2020-01-19 18:18:58.200000,-8.938,-1.75,321.625,0.986,-29.0,-149.0,975.0
2020-01-19 18:18:58.300000,-8.938,-1.75,321.625,0.986,-29.0,-151.0,974.0
2020-01-19 18:18:58.400000,-8.938,-1.75,321.625,0.986,-29.0,-151.0,974.0
2020-01-19 18:18:58.500000,-8.938,-1.75,321.625,0.986,-30.0,-148.0,975.0
2020-01-19 18:18:58.600000,-8.938,-1.75,321.625,0.986,-30.0,-150.0,975.0
2020-01-19 18:18:58.700000,-8.938,-1.75,321.625,0.986,-30.0,-150.0,975.0
2020-01-19 18:18:58.800000,-8.938,-1.75,321.625,0.985,-29.0,-151.0,973.0
2020-01-19 18:18:58.900000,-8.938,-1.75,321.625,0.986,-29.0,-148.0,975.0
2020-01-19 18:18:59,-8.938,-1.75,321.625,0.986,-29.0,-148.0,975.0
2020-01-19 18:18:59.100000,-8.938,-1.75,321.625,0.985,-31.0,-149.0,974.0
2020-01-19 18:18:59.200000,-8.938,-1.75,321.625,0.986,-29.0,-151.0,974.0
2020-01-19 18:18:59.300000,-8.938,-1.75,321.625,0.986,-29.0,-151.0,974.0
2020-01-19 18:18:59.400000,-8.938,-1.75,321.625,0.986,-29.0,-149.0,975.0
2020-01-19 18:18:59.500000,-8.938,-1.75,321.625,0.985,-31.0,-148.0,974.0
2020-01-19 18:18:59.600000,-8.938,-1.75,321.625,0.985,-31.0,-148.0,974.0
2020-01-19 18:18:59.700000,-8.938,-1.75,321.625,0.985,-29.0,-150.0,974.0
2020-01-19 18:18:59.800000,-8.938,-1.75,321.625,0.985,-29.0,-150.0,974.0
2020-01-19 18:18:59.900000,-8.938,-1.75,321.625,0.985,-29.0,-150.0,974.0
2020-01-19 18:19:00,-8.938,-1.75,321.625,0.986,-31.0,-148.0,975.0
2020-01-19 18:19:00.100000,-8.938,-1.75,321.625,0.985,-29.0,-150.0,974.0
2020-01-19 18:19:00.200000,-8.938,-1.75,321.625,0.985,-29.0,-150.0,974.0
2020-01-19 18:19:00.300000,-8.938,-1.75,321.625,0.985,-29.0,-151.0,973.0
2020-01-19 18:19:00.400000,-8.938,-1.75,321.625,0.986,-30.0,-148.0,975.0
2020-01-19 18:19:00.500000,-8.938,-1.75,321.625,0.986,-30.0,-148.0,975.0
2020-01-19 18:19:00.600000,-8.938,-1.75,321.625,0.986,-30.0,-150.0,975.0
2020-01-19 18:19:00.700000,-8.938,-1.75,321.625,0.985,-29.0,-150.0,974.0
2020-01-19 18:19:00.800000,-8.938,-1.75,321.625,0.985,-29.0,-150.0,974.0
2020-01-19 18:19:00.900000,-8.938,-1.75,321.625,0.986,-30.0,-148.0,975.0
2020-01-19 18:19:01,-8.938,-1.75,321.625,0.985,-31.0,-149.0,974.0
2020-01-19 18:19:01.100000,-8.938,-1.75,321.625,0.985,-31.0,-149.0,974.0
2020-01-19 18:19:01.200000,-8.938,-1.75,321.625,0.985,-29.0,-151.0,973.0
2020-01-19 18:19:01.300000,-8.938,-1.75,321.625,0.986,-30.0,-149.0,975.0
2020-01-19 18:19:01.400000,-8.938,-1.75,321.625,0.986,-30.0,-149.0,975.0
2020-01-19 18:19:01.500000,-8.938,-1.75,321.625,0.986,-31.0,-149.0,975.0
2020-01-19 18:19:01.600000,-8.938,-1.75,321.625,0.985,-30.0,-150.0,974.0
2020-01-19 18:19:01.700000,-8.938,-1.75,321.625,0.985,-30.0,-150.0,974.0
2020-01-19 18:19:01.800000,-8.938,-1.75,321.625,0.986,-29.0,-149.0,975.0
2020-01-19 18:19:01.900000,-8.938,-1.75,321.625,0.986,-31.0,-149.0,975.0
2020-01-19 18:19:02,-8.938,-1.75,321.625,0.986,-31.0,-149.0,975.0
2020-01-19 18:19:02.100000,-8.938,-1.75,321.625,0.984,-29.0,-150.0,973.0
2020-01-19 18:19:02.200000,-8.938,-1.75,321.625,0.985,-30.0,-149.0,974.0
2020-01-19 18:19:02.300000,-8.938,-1.75,321.625,0.985,-30.0,-149.0,974.0
2020-01-19 18:19:02.400000,-8.938,-1.75,321.625,0.985,-30.0,-150.0,974.0
2020-01-19 18:19:02.500000,-8.938,-1.75,321.625,0.985,-29.0,-150.0,974.0
2020-01-19 18:19:02.600000,-8.938,-1.75,321.625,0.985,-29.0,-150.0,974.0
2020-01-19 18:19:02.700000,-8.938,-1.75,321.625,0.985,-30.0,-149.0,974.0
2020-01-19 18:19:02.800000,-8.938,-1.75,321.625,0.985,-30.0,-150.0,974.0
2020-01-19 18:19:02.900000,-8.938,-1.75,321.625,0.985,-30.0,-150.0,974.0
2020-01-19 18:19:03,-8.938,-1.75,321.625,0.985,-30.0,-150.0,974.0
2020-01-19 18:19:03.100000,-8.938,-1.75,321.625,0.985,-30.0,-149.0,974.0
2020-01-19 18:19:03.200000,-8.938,-1.75,321.625,0.985,-30.0,-149.0,974.0
2020-01-19 18:19:03.300000,-8.938,-1.75,321.625,0.985,-31.0,-149.0,974.0
2020-01-19 18:19:03.400000,-8.938,-1.75,321.625,0.985,-30.0,-150.0,974.0
2020-01-19 18:19:03.500000,-8.938,-1.75,321.625,0.985,-30.0,-150.0,974.0
2020-01-19 18:19:03.600000,-8.938,-1.75,321.625,0.985,-29.0,-149.0,974.0
2020-01-19 18:19:03.700000,-8.938,-1.75,321.625,0.984,-29.0,-150.0,973.0
2020-01-19 18:19:03.800000,-8.938,-1.75,321.625,0.984,-29.0,-150.0,973.0
2020-01-19 18:19:03.900000,-8.938,-1.75,321.625,0.985,-30.0,-149.0,974.0
2020-01-19 18:19:04,-8.938,-1.75,321.625,0.986,-29.0,-150.0,975.0
2020-01-19 18:19:04.100000,-8.938,-1.75,321.625,0.986,-29.0,-150.0,975.0
2020-01-19 18:19:04.200000,-8.938,-1.75,321.625,0.986,-29.0,-149.0,975.0
2020-01-19 18:19:04.300000,-8.938,-1.75,321.625,0.985,-30.0,-149.0,974.0
2020-01-19 18:19:04.400000,-8.938,-1.75,321.625,0.985,-30.0,-149.0,974.0
2020-01-19 18:19:04.500000,-8.938,-1.75,321.625,0.985,-29.0,-150.0,974.0
2020-01-19 18:19:04.600000,-8.938,-1.75,321.625,0.986,-29.0,-149.0,975.0
2020-01-19 18:19:04.700000,-8.938,-1.75,321.625,0.986,-29.0,-149.0,975.0
2020-01-19 18:19:04.800000,-8.938,-1.75,321.625,0.985,-30.0,-150.0,974.0
2020-01-19 18:19:04.900000,-8.938,-1.75,321.625,0.986,-29.0,-149.0,975.0
2020-01-19 18:19:05,-8.938,-1.75,321.625,0.986,-29.0,-149.0,975.0
2020-01-19 18:19:05.100000,-8.938,-1.75,321.625,0.986,-29.0,-150.0,975.0
2020-01-19 18:19:05.200000,-8.938,-1.75,321.625,0.986,-30.0,-149.0,975.0
2020-01-19 18:19:05.300000,-8.938,-1.75,321.625,0.986,-30.0,-149.0,975.0
2020-01-19 18:19:05.400000,-8.938,-1.75,321.625,0.985,-29.0,-150.0,974.0
2020-01-19 18:19:05.500000,-8.938,-1.75,321.625,0.985,-30.0,-149.0,974.0
2020-01-19 18:19:05.600000,-8.938,-1.75,321.625,0.985,-30.0,-149.0,974.0
2020-01-19 18:19:05.700000,-8.938,-1.75,321.625,0.986,-30.0,-149.0,975.0
2020-01-19 18:19:05.800000,-8.938,-1.75,321.625,0.985,-29.0,-150.0,974.0
2020-01-19 18:19:05.900000,-8.938,-1.75,321.625,0.985,-29.0,-150.0,974.0
2020-01-19 18:19:06,-8.938,-1.75,321.625,0.985,-29.0,-150.0,974.0
2020-01-19 18:19:06.100000,-8.938,-1.75,321.625,0.985,-29.0,-150.0,974.0
2020-01-19 18:19:06.200000,-8.938,-1.75,321.625,0.985,-29.0,-150.0,974.0
2020-01-19 18:19:06.300000,-8.938,-1.75,321.625,0.986,-30.0,-148.0,975.0
2020-01-19 18:19:06.400000,-8.938,-1.75,321.625,0.985,-30.0,-150.0,974.0
2020-01-19 18:19:06.500000,-8.938,-1.75,321.625,0.985,-30.0,-150.0,974.0
2020-01-19 18:19:06.600000,-8.938,-1.75,321.625,0.985,-30.0,-149.0,974.0
2020-01-19 18:19:06.700000,-8.938,-1.75,321.625,0.985,-29.0,-149.0,974.0
2020-01-19 18:19:06.800000,-8.938,-1.75,321.625,0.985,-29.0,-149.0,974.0
2020-01-19 18:19:06.900000,-8.938,-1.75,321.625,0.986,-30.0,-149.0,975.0
2020-01-19 18:19:07,-8.938,-1.75,321.625,0.985,-29.0,-149.0,974.0
2020-01-19 18:19:07.100000,-8.938,-1.75,321.625,0.985,-29.0,-149.0,974.0
2020-01-19 18:19:07.200000,-8.938,-1.75,321.625,0.986,-30.0,-149.0,975.0
2020-01-19 18:19:07.300000,-8.938,-1.75,321.625,0.985,-30.0,-149.0,974.0
2020-01-19 18:19:07.400000,-8.938,-1.75,321.625,0.985,-30.0,-149.0,974.0
2020-01-19 18:19:07.500000,-8.938,-1.75,321.625,0.986,-30.0,-149.0,975.0
2020-01-19 18:19:07.600000,-8.938,-1.75,321.625,0.986,-30.0,-150.0,975.0
2020-01-19 18:19:07.700000,-8.938,-1.75,321.625,0.986,-30.0,-150.0,975.0
2020-01-19 18:19:07.800000,-8.938,-1.75,321.625,0.985,-30.0,-149.0,974.0
2020-01-19 18:19:07.900000,-8.938,-1.75,321.625,0.986,-30.0,-149.0,975.0
2020-01-19 18:19:08,-8.938,-1.75,321.625,0.986,-30.0,-149.0,975.0
2020-01-19 18:19:08.100000,-8.938,-1.75,321.625,0.986,-30.0,-150.0,975.0
2020-01-19 18:19:08.200000,-8.938,-1.75,321.625,0.986,-29.0,-149.0,975.0
2020-01-19 18:19:08.300000,-8.938,-1.75,321.625,0.986,-29.0,-149.0,975.0
2020-01-19 18:19:08.400000,-8.938,-1.75,321.625,0.986,-29.0,-150.0,975.0
2020-01-19 18:19:08.500000,-8.938,-1.75,321.625,0.984,-30.0,-149.0,973.0
2020-01-19 18:19:08.600000,-8.938,-1.75,321.625,0.984,-30.0,-149.0,973.0
2020-01-19 18:19:08.700000,-8.938,-1.75,321.625,0.985,-28.0,-150.0,974.0
2020-01-19 18:19:08.800000,-8.938,-1.75,321.625,0.985,-29.0,-149.0,974.0
2020-01-19 18:19:08.900000,-8.938,-1.75,321.625,0.985,-29.0,-149.0,974.0
2020-01-19 18:19:09,-8.938,-1.75,321.625,0.985,-29.0,-149.0,974.0
2020-01-19 18:19:09.100000,-8.938,-1.75,321.625,0.986,-29.0,-150.0,975.0
2020-01-19 18:19:09.200000,-8.938,-1.75,321.625,0.986,-29.0,-150.0,975.0
2020-01-19 18:19:09.300000,-8.938,-1.75,321.625,0.985,-29.0,-149.0,974.0
2020-01-19 18:19:09.400000,-8.938,-1.75,321.625,0.985,-30.0,-150.0,974.0
2020-01-19 18:19:09.500000,-8.938,-1.75,321.625,0.985,-30.0,-150.0,974.0
2020-01-19 18:19:09.600000,-8.938,-1.75,321.625,0.986,-30.0,-149.0,975.0
2020-01-19 18:19:09.700000,-8.938,-1.75,321.625,0.986,-30.0,-149.0,975.0
2020-01-19 18:19:09.800000,-8.938,-1.75,321.625,0.986,-30.0,-149.0,975.0
2020-01-19 18:19:09.900000,-8.938,-1.75,321.625,0.985,-29.0,-149.0,974.0
2020-01-19 18:19:10,-8.938,-1.75,321.625,0.985,-29.0,-150.0,974.0
2020-01-19 18:19:10.100000,-8.938,-1.75,321.625,0.985,-29.0,-150.0,974.0
2020-01-19 18:19:10.200000,-8.938,-1.75,321.625,0.985,-29.0,-149.0,974.0
2020-01-19 18:19:10.300000,-8.938,-1.75,321.625,0.985,-29.0,-150.0,974.0
2020-01-19 18:19:10.400000,-8.938,-1.75,321.625,0.985,-29.0,-150.0,974.0
2020-01-19 18:19:10.500000,-8.938,-1.75,321.625,0.986,-29.0,-149.0,975.0
2020-01-19 18:19:10.600000,-8.938,-1.75,321.625,0.986,-30.0,-149.0,975.0
2020-01-19 18:19:10.700000,-8.938,-1.75,321.625,0.986,-30.0,-149.0,975.0
2020-01-19 18:19:10.800000,-8.938,-1.75,321.625,0.985,-30.0,-149.0,974.0
2020-01-19 18:19:10.900000,-8.938,-1.75,321.625,0.985,-29.0,-149.0,974.0
2020-01-19 18:19:11,-8.938,-1.75,321.625,0.985,-29.0,-149.0,974.0
2020-01-19 18:19:11.100000,-8.938,-1.75,321.625,0.985,-29.0,-149.0,974.0
2020-01-19 18:19:11.200000,-8.938,-1.75,321.625,0.986,-30.0,-149.0,975.0
2020-01-19 18:19:11.300000,-8.938,-1.75,321.625,0.986,-30.0,-149.0,975.0
2020-01-19 18:19:11.400000,-8.938,-1.75,321.625,0.985,-29.0,-150.0,974.0
2020-01-19 18:19:11.500000,-8.938,-1.75,321.625,0.985,-30.0,-150.0,974.0
2020-01-19 18:19:11.600000,-8.938,-1.75,321.625,0.985,-30.0,-150.0,974.0
2020-01-19 18:19:11.700000,-8.938,-1.75,321.625,0.986,-30.0,-149.0,975.0
2020-01-19 18:19:11.800000,-8.938,-1.75,321.625,0.986,-30.0,-149.0,975.0
2020-01-19 18:19:11.900000,-8.938,-1.75,321.625,0.986,-30.0,-149.0,975.0
2020-01-19 18:19:12,-8.938,-1.75,321.625,0.985,-29.0,-149.0,974.0
2020-01-19 18:19:12.100000,-8.938,-1.75,321.625,0.986,-30.0,-150.0,975.0
2020-01-19 18:19:12.200000,-8.938,-1.75,321.625,0.986,-30.0,-150.0,975.0
2020-01-19 18:19:12.300000,-8.938,-1.75,321.625,0.985,-29.0,-149.0,974.0
2020-01-19 18:19:12.400000,-8.938,-1.75,321.625,0.985,-29.0,-150.0,974.0
2020-01-19 18:19:12.500000,-8.938,-1.75,321.625,0.985,-29.0,-150.0,974.0
2020-01-19 18:19:12.600000,-8.938,-1.75,321.625,0.986,-30.0,-149.0,975.0
2020-01-19 18:19:12.700000,-8.938,-1.75,321.625,0.984,-29.0,-149.0,973.0
2020-01-19 18:19:12.800000,-8.938,-1.75,321.625,0.984,-29.0,-149.0,973.0
2020-01-19 18:19:12.900000,-8.938,-1.75,321.625,0.985,-29.0,-149.0,974.0
2020-01-19 18:19:13,-8.938,-1.75,321.625,0.985,-29.0,-150.0,974.0
2020-01-19 18:19:13.100000,-8.938,-1.75,321.625,0.985,-29.0,-150.0,974.0
2020-01-19 18:19:13.200000,-8.938,-1.75,321.625,0.986,-30.0,-150.0,975.0
2020-01-19 18:19:13.300000,-8.938,-1.75,321.625,0.985,-29.0,-148.0,974.0
2020-01-19 18:19:13.400000,-8.938,-1.75,321.625,0.985,-29.0,-148.0,974.0
2020-01-19 18:19:13.500000,-8.938,-1.75,321.625,0.986,-29.0,-149.0,975.0
2020-01-19 18:19:13.600000,-8.938,-1.75,321.625,0.985,-29.0,-149.0,974.0
2020-01-19 18:19:13.700000,-8.938,-1.75,321.625,0.985,-29.0,-149.0,974.0
2020-01-19 18:19:13.800000,-8.938,-1.75,321.625,0.985,-30.0,-149.0,974.0
2020-01-19 18:19:13.900000,-8.938,-1.75,321.625,0.986,-29.0,-149.0,975.0
2020-01-19 18:19:14,-8.938,-1.75,321.625,0.986,-29.0,-149.0,975.0
2020-01-19 18:19:14.100000,-8.938,-1.75,321.625,0.986,-30.0,-150.0,975.0
2020-01-19 18:19:14.200000,-8.938,-1.75,321.625,0.985,-29.0,-149.0,974.0
2020-01-19 18:19:14.300000,-8.938,-1.75,321.625,0.985,-29.0,-149.0,974.0
2020-01-19 18:19:14.400000,-8.938,-1.75,321.625,0.985,-29.0,-150.0,974.0
2020-01-19 18:19:14.500000,-8.938,-1.75,321.625,0.985,-29.0,-149.0,974.0
2020-01-19 18:19:14.600000,-8.938,-1.75,321.625,0.985,-29.0,-149.0,974.0
2020-01-19 18:19:14.700000,-8.938,-1.75,321.625,0.985,-30.0,-150.0,974.0
2020-01-19 18:19:14.800000,-8.938,-1.75,321.625,0.985,-30.0,-149.0,974.0
2020-01-19 18:19:14.900000,-8.938,-1.75,321.625,0.985,-30.0,-149.0,974.0
2020-01-19 18:19:15,-8.938,-1.75,321.625,0.986,-29.0,-149.0,975.0
2020-01-19 18:19:15.100000,-8.938,-1.75,321.625,0.986,-29.0,-151.0,974.0
2020-01-19 18:19:15.200000,-8.938,-1.75,321.625,0.986,-29.0,-151.0,974.0
2020-01-19 18:19:15.300000,-8.938,-1.75,321.625,0.987,-30.0,-149.0,976.0
2020-01-19 18:19:15.400000,-8.938,-1.75,321.625,0.985,-30.0,-149.0,974.0
2020-01-19 18:19:15.500000,-8.938,-1.75,321.625,0.985,-30.0,-149.0,974.0
2020-01-19 18:19:15.600000,-8.938,-1.75,321.625,0.986,-29.0,-149.0,975.0
2020-01-19 18:19:15.700000,-8.938,-1.75,321.625,0.985,-30.0,-150.0,974.0
2020-01-19 18:19:15.800000,-8.938,-1.75,321.625,0.985,-30.0,-150.0,974.0
2020-01-19 18:19:15.900000,-8.938,-1.75,321.625,0.985,-30.0,-149.0,974.0
2020-01-19 18:19:16,-8.938,-1.75,321.625,0.986,-30.0,-149.0,975.0
2020-01-19 18:19:16.100000,-8.938,-1.75,321.625,0.986,-30.0,-149.0,975.0
2020-01-19 18:19:16.200000,-8.938,-1.75,321.625,0.986,-30.0,-150.0,975.0
2020-01-19 18:19:16.300000,-8.938,-1.75,321.625,0.986,-30.0,-149.0,975.0
2020-01-19 18:19:16.400000,-8.938,-1.75,321.625,0.986,-30.0,-149.0,975.0
2020-01-19 18:19:16.500000,-8.938,-1.75,321.625,0.986,-30.0,-150.0,975.0
2020-01-19 18:19:16.600000,-8.938,-1.75,321.625,0.985,-30.0,-150.0,974.0
2020-01-19 18:19:16.700000,-8.938,-1.75,321.625,0.985,-30.0,-150.0,974.0
2020-01-19 18:19:16.800000,-8.938,-1.75,321.625,0.985,-30.0,-149.0,974.0
2020-01-19 18:19:16.900000,-8.938,-1.75,321.625,0.986,-30.0,-149.0,975.0
2020-01-19 18:19:17,-8.938,-1.75,321.625,0.986,-30.0,-149.0,975.0
2020-01-19 18:19:17.100000,-8.938,-1.75,321.625,0.986,-29.0,-150.0,975.0
2020-01-19 18:19:17.200000,-8.938,-1.75,321.625,0.985,-29.0,-149.0,974.0
2020-01-19 18:19:17.300000,-8.938,-1.75,321.625,0.985,-29.0,-149.0,974.0
2020-01-19 18:19:17.400000,-8.938,-1.75,321.625,0.986,-29.0,-150.0,975.0
2020-01-19 18:19:17.500000,-8.938,-1.75,321.625,0.986,-30.0,-149.0,975.0
2020-01-19 18:19:17.600000,-8.938,-1.75,321.625,0.986,-30.0,-149.0,975.0
2020-01-19 18:19:17.700000,-8.938,-1.75,321.625,0.986,-30.0,-149.0,975.0
2020-01-19 18:19:17.800000,-8.938,-1.75,321.625,0.985,-29.0,-150.0,974.0
2020-01-19 18:19:17.900000,-8.938,-1.75,321.625,0.985,-29.0,-150.0,974.0
2020-01-19 18:19:18,-8.938,-1.75,321.625,0.985,-30.0,-148.0,974.0
2020-01-19 18:19:18.100000,-8.938,-1.75,321.625,0.986,-30.0,-149.0,975.0
2020-01-19 18:19:18.200000,-8.938,-1.75,321.625,0.986,-30.0,-149.0,975.0
2020-01-19 18:19:18.300000,-8.938,-1.75,321.625,0.987,-28.0,-150.0,976.0
2020-01-19 18:19:18.400000,-8.938,-1.75,321.625,0.986,-30.0,-150.0,975.0
2020-01-19 18:19:18.500000,-8.938,-1.75,321.625,0.986,-30.0,-150.0,975.0
2020-01-19 18:19:18.600000,-8.938,-1.75,321.625,0.985,-30.0,-150.0,974.0
2020-01-19 18:19:18.700000,-8.938,-1.75,321.625,0.987,-30.0,-150.0,976.0
2020-01-19 18:19:18.800000,-8.938,-1.75,321.625,0.987,-30.0,-150.0,976.0
2020-01-19 18:19:18.900000,-8.938,-1.75,321.625,0.985,-29.0,-150.0,974.0
2020-01-19 18:19:19,-8.938,-1.75,321.625,0.985,-29.0,-150.0,974.0
2020-01-19 18:19:19.100000,-8.938,-1.75,321.625,0.985,-29.0,-150.0,974.0
2020-01-19 18:19:19.200000,-8.938,-1.75,321.625,0.986,-29.0,-149.0,975.0
2020-01-19 18:19:19.300000,-8.938,-1.75,321.625,0.986,-29.0,-149.0,975.0
2020-01-19 18:19:19.400000,-8.938,-1.75,321.625,0.986,-29.0,-149.0,975.0
2020-01-19 18:19:19.500000,-8.938,-1.75,321.625,0.985,-29.0,-149.0,974.0
2020-01-19 18:19:19.600000,-8.938,-1.75,321.625,0.986,-29.0,-150.0,975.0
2020-01-19 18:19:19.700000,-8.938,-1.75,321.625,0.986,-29.0,-150.0,975.0
2020-01-19 18:19:19.800000,-8.938,-1.75,321.625,0.986,-29.0,-149.0,975.0
2020-01-19 18:19:19.900000,-8.938,-1.75,321.625,0.986,-29.0,-151.0,974.0
2020-01-19 18:19:20,-8.938,-1.75,321.625,0.986,-29.0,-151.0,974.0
2020-01-19 18:19:20.100000,-8.938,-1.75,321.625,0.985,-30.0,-148.0,974.0
2020-01-19 18:19:20.200000,-8.938,-1.75,321.625,0.986,-29.0,-150.0,975.0
2020-01-19 18:19:20.300000,-8.938,-1.75,321.625,0.986,-29.0,-150.0,975.0
2020-01-19 18:19:20.400000,-8.938,-1.75,321.625,0.985,-29.0,-149.0,974.0
2020-01-19 18:19:20.500000,-8.938,-1.75,321.625,0.985,-30.0,-149.0,974.0
2020-01-19 18:19:20.600000,-8.938,-1.75,321.625,0.985,-30.0,-149.0,974.0
2020-01-19 18:19:20.700000,-8.938,-1.75,321.625,0.986,-30.0,-150.0,975.0
2020-01-19 18:19:20.800000,-8.938,-1.75,321.625,0.985,-30.0,-149.0,974.0
2020-01-19 18:19:20.900000,-8.938,-1.75,321.625,0.985,-30.0,-149.0,974.0
2020-01-19 18:19:21,-8.938,-1.75,321.625,0.986,-29.0,-150.0,975.0
2020-01-19 18:19:21.100000,-8.938,-1.75,321.625,0.986,-30.0,-149.0,975.0
2020-01-19 18:19:21.200000,-8.938,-1.75,321.625,0.986,-30.0,-149.0,975.0
2020-01-19 18:19:21.300000,-8.938,-1.75,321.625,0.985,-29.0,-150.0,974.0
2020-01-19 18:19:21.400000,-8.938,-1.75,321.625,0.985,-29.0,-150.0,974.0
2020-01-19 18:19:21.500000,-8.938,-1.75,321.625,0.985,-29.0,-150.0,974.0
2020-01-19 18:19:21.600000,-8.938,-1.75,321.625,0.985,-30.0,-149.0,974.0
2020-01-19 18:19:21.700000,-8.938,-1.75,321.625,0.986,-29.0,-149.0,975.0
2020-01-19 18:19:21.800000,-8.938,-1.75,321.625,0.986,-29.0,-149.0,975.0
2020-01-19 18:19:21.900000,-8.938,-1.75,321.625,0.985,-30.0,-150.0,974.0
2020-01-19 18:19:22,-8.938,-1.75,321.625,0.986,-29.0,-149.0,975.0
2020-01-19 18:19:22.100000,-8.938,-1.75,321.625,0.986,-29.0,-149.0,975.0
2020-01-19 18:19:22.200000,-8.938,-1.75,321.625,0.985,-30.0,-149.0,974.0
2020-01-19 18:19:22.300000,-8.938,-1.75,321.625,0.985,-30.0,-150.0,974.0
2020-01-19 18:19:22.400000,-8.938,-1.75,321.625,0.985,-30.0,-150.0,974.0
2020-01-19 18:19:22.500000,-8.938,-1.75,321.625,0.986,-30.0,-149.0,975.0
2020-01-19 18:19:22.600000,-8.938,-1.75,321.625,0.985,-30.0,-150.0,974.0
2020-01-19 18:19:22.700000,-8.938,-1.75,321.625,0.985,-30.0,-150.0,974.0
2020-01-19 18:19:22.800000,-8.938,-1.75,321.625,0.985,-29.0,-150.0,974.0
2020-01-19 18:19:22.900000,-8.938,-1.75,321.625,0.986,-30.0,-150.0,975.0
2020-01-19 18:19:23,-8.938,-1.75,321.625,0.986,-30.0,-150.0,975.0
2020-01-19 18:19:23.100000,-8.938,-1.75,321.625,0.985,-30.0,-149.0,974.0
2020-01-19 18:19:23.200000,-8.938,-1.75,321.625,0.986,-29.0,-149.0,975.0
2020-01-19 18:19:23.300000,-8.938,-1.75,321.625,0.986,-29.0,-149.0,975.0
2020-01-19 18:19:23.400000,-8.938,-1.75,321.625,0.986,-29.0,-150.0,975.0
2020-01-19 18:19:23.500000,-8.938,-1.75,321.625,0.986,-30.0,-149.0,975.0
2020-01-19 18:19:23.600000,-8.938,-1.75,321.625,0.986,-30.0,-149.0,975.0
2020-01-19 18:19:23.700000,-8.938,-1.75,321.625,0.985,-29.0,-149.0,974.0
2020-01-19 18:19:23.800000,-8.938,-1.75,321.625,0.985,-29.0,-150.0,974.0
2020-01-19 18:19:23.900000,-8.938,-1.75,321.625,0.985,-29.0,-150.0,974.0
2020-01-19 18:19:24,-8.938,-1.75,321.625,0.986,-30.0,-149.0,975.0
2020-01-19 18:19:24.100000,-8.938,-1.75,321.625,0.986,-30.0,-149.0,975.0
2020-01-19 18:19:24.200000,-8.938,-1.75,321.625,0.986,-30.0,-149.0,975.0
2020-01-19 18:19:24.300000,-8.938,-1.75,321.625,0.986,-29.0,-149.0,975.0
2020-01-19 18:19:24.400000,-8.938,-1.75,321.625,0.985,-29.0,-149.0,974.0
2020-01-19 18:19:24.500000,-8.938,-1.75,321.625,0.985,-29.0,-149.0,974.0
2020-01-19 18:19:24.600000,-8.938,-1.75,321.625,0.986,-30.0,-150.0,975.0
2020-01-19 18:19:24.700000,-8.938,-1.75,321.625,0.986,-30.0,-150.0,975.0
2020-01-19 18:19:24.800000,-8.938,-1.75,321.625,0.986,-30.0,-150.0,975.0
2020-01-19 18:19:24.900000,-8.938,-1.75,321.625,0.985,-29.0,-149.0,974.0
2020-01-19 18:19:25,-8.938,-1.75,321.625,0.985,-29.0,-149.0,974.0
2020-01-19 18:19:25.100000,-8.938,-1.75,321.625,0.985,-29.0,-149.0,974.0
2020-01-19 18:19:25.200000,-8.938,-1.75,321.625,0.986,-29.0,-150.0,975.0
2020-01-19 18:19:25.300000,-8.938,-1.75,321.625,0.986,-29.0,-149.0,975.0
2020-01-19 18:19:25.400000,-8.938,-1.75,321.625,0.986,-29.0,-149.0,975.0
2020-01-19 18:19:25.500000,-8.938,-1.75,321.625,0.985,-29.0,-149.0,974.0
2020-01-19 18:19:25.600000,-8.938,-1.75,321.625,0.985,-29.0,-150.0,974.0
2020-01-19 18:19:25.700000,-8.938,-1.75,321.625,0.985,-29.0,-150.0,974.0
2020-01-19 18:19:25.800000,-8.938,-1.75,321.625,0.986,-29.0,-150.0,975.0
2020-01-19 18:19:25.900000,-8.938,-1.75,321.625,0.985,-29.0,-149.0,974.0
2020-01-19 18:19:26,-8.938,-1.75,321.625,0.985,-29.0,-149.0,974.0
2020-01-19 18:19:26.100000,-8.938,-1.75,321.625,0.985,-29.0,-149.0,974.0
2020-01-19 18:19:26.200000,-8.938,-1.75,321.625,0.985,-29.0,-149.0,974.0
2020-01-19 18:19:26.300000,-8.938,-1.75,321.625,0.985,-29.0,-149.0,974.0
2020-01-19 18:19:26.400000,-8.938,-1.75,321.625,0.986,-30.0,-149.0,975.0
2020-01-19 18:19:26.500000,-8.938,-1.75,321.625,0.985,-29.0,-150.0,974.0
2020-01-19 18:19:26.600000,-8.938,-1.75,321.625,0.985,-29.0,-150.0,974.0
2020-01-19 18:19:26.700000,-8.938,-1.75,321.625,0.986,-29.0,-149.0,975.0
2020-01-19 18:19:26.800000,-8.938,-1.75,321.625,0.986,-29.0,-150.0,975.0
2020-01-19 18:19:26.900000,-8.938,-1.75,321.625,0.986,-29.0,-150.0,975.0
2020-01-19 18:19:27,-8.938,-1.75,321.625,0.986,-29.0,-148.0,975.0
2020-01-19 18:19:27.100000,-8.938,-1.75,321.625,0.986,-29.0,-150.0,975.0
2020-01-19 18:19:27.200000,-8.938,-1.75,321.625,0.986,-29.0,-150.0,975.0
2020-01-19 18:19:27.300000,-8.938,-1.75,321.625,0.986,-29.0,-149.0,975.0
2020-01-19 18:19:27.400000,-8.938,-1.75,321.625,0.985,-29.0,-149.0,974.0
2020-01-19 18:19:27.500000,-8.938,-1.75,321.625,0.985,-29.0,-149.0,974.0
2020-01-19 18:19:27.600000,-8.938,-1.75,321.625,0.986,-29.0,-149.0,975.0
2020-01-19 18:19:27.700000,-8.938,-1.75,321.625,0.986,-29.0,-150.0,975.0
2020-01-19 18:19:27.800000,-8.938,-1.75,321.625,0.986,-29.0,-150.0,975.0
2020-01-19 18:19:27.900000,-8.938,-1.75,321.625,0.985,-29.0,-149.0,974.0
2020-01-19 18:19:28,-8.938,-1.75,321.625,0.985,-30.0,-150.0,974.0
2020-01-19 18:19:28.100000,-8.938,-1.75,321.625,0.985,-30.0,-150.0,974.0
2020-01-19 18:19:28.200000,-8.938,-1.75,321.625,0.986,-29.0,-150.0,975.0
2020-01-19 18:19:28.300000,-8.938,-1.75,321.625,0.985,-29.0,-150.0,974.0
2020-01-19 18:19:28.400000,-8.938,-1.75,321.625,0.985,-29.0,-150.0,974.0
2020-01-19 18:19:28.500000,-8.938,-1.75,321.625,0.985,-30.0,-149.0,974.0
2020-01-19 18:19:28.600000,-8.938,-1.75,321.625,0.987,-30.0,-149.0,976.0
2020-01-19 18:19:28.700000,-8.938,-1.75,321.625,0.987,-30.0,-149.0,976.0
2020-01-19 18:19:28.800000,-8.938,-1.75,321.625,0.986,-30.0,-149.0,975.0
2020-01-19 18:19:28.900000,-8.938,-1.75,321.625,0.985,-29.0,-150.0,974.0
2020-01-19 18:19:29,-8.938,-1.75,321.625,0.985,-29.0,-150.0,974.0
2020-01-19 18:19:29.100000,-8.938,-1.75,321.625,0.986,-30.0,-149.0,975.0
2020-01-19 18:19:29.200000,-8.938,-1.75,321.625,0.985,-29.0,-150.0,974.0
2020-01-19 18:19:29.300000,-8.938,-1.75,321.625,0.985,-29.0,-150.0,974.0
2020-01-19 18:19:29.400000,-8.938,-1.75,321.625,0.985,-29.0,-149.0,974.0
2020-01-19 18:19:29.500000,-8.938,-1.75,321.625,0.986,-29.0,-150.0,975.0
2020-01-19 18:19:29.600000,-8.938,-1.75,321.625,0.986,-29.0,-150.0,975.0
2020-01-19 18:19:29.700000,-8.938,-1.75,321.625,0.986,-30.0,-149.0,975.0
2020-01-19 18:19:29.800000,-8.938,-1.75,321.625,0.985,-30.0,-150.0,974.0
2020-01-19 18:19:29.900000,-8.938,-1.75,321.625,0.985,-30.0,-150.0,974.0
2020-01-19 18:19:30,-8.938,-1.75,321.625,0.985,-29.0,-148.0,974.0
2020-01-19 18:19:30.100000,-8.938,-1.75,321.625,0.984,-29.0,-149.0,973.0
2020-01-19 18:19:30.200000,-8.938,-1.75,321.625,0.984,-29.0,-149.0,973.0
2020-01-19 18:19:30.300000,-8.938,-1.75,321.625,0.985,-29.0,-150.0,974.0
2020-01-19 18:19:30.400000,-8.938,-1.75,321.625,0.986,-29.0,-150.0,975.0
2020-01-19 18:19:30.500000,-8.938,-1.75,321.625,0.986,-29.0,-150.0,975.0
2020-01-19 18:19:30.600000,-8.938,-1.75,321.625,0.985,-30.0,-150.0,974.0
2020-01-19 18:19:30.700000,-8.938,-1.75,321.625,0.985,-30.0,-149.0,974.0
2020-01-19 18:19:30.800000,-8.938,-1.75,321.625,0.985,-30.0,-149.0,974.0
2020-01-19 18:19:30.900000,-8.938,-1.75,321.625,0.986,-30.0,-147.0,975.0
2020-01-19 18:19:31,-8.938,-1.75,321.625,0.987,-28.0,-151.0,975.0
2020-01-19 18:19:31.100000,-8.938,-1.75,321.625,0.987,-28.0,-151.0,975.0
2020-01-19 18:19:31.200000,-8.938,-1.75,321.625,0.985,-29.0,-149.0,974.0
2020-01-19 18:19:31.300000,-8.938,-1.75,321.625,0.986,-29.0,-150.0,975.0
2020-01-19 18:19:31.400000,-8.938,-1.75,321.625,0.986,-29.0,-150.0,975.0
2020-01-19 18:19:31.500000,-8.938,-1.75,321.625,0.985,-30.0,-150.0,974.0
2020-01-19 18:19:31.600000,-8.938,-1.75,321.625,0.986,-30.0,-148.0,975.0
2020-01-19 18:19:31.700000,-8.938,-1.75,321.625,0.986,-30.0,-148.0,975.0
2020-01-19 18:19:31.800000,-8.938,-1.75,321.625,0.985,-28.0,-150.0,974.0
2020-01-19 18:19:31.900000,-8.938,-1.75,321.625,0.985,-29.0,-150.0,974.0
2020-01-19 18:19:32,-8.938,-1.75,321.625,0.985,-29.0,-150.0,974.0
2020-01-19 18:19:32.100000,-8.938,-1.75,321.625,0.985,-30.0,-149.0,974.0
2020-01-19 18:19:32.200000,-8.938,-1.75,321.625,0.987,-28.0,-150.0,976.0
2020-01-19 18:19:32.300000,-8.938,-1.75,321.625,0.987,-28.0,-150.0,976.0
2020-01-19 18:19:32.400000,-8.938,-1.75,321.625,0.986,-30.0,-149.0,975.0
2020-01-19 18:19:32.500000,-8.938,-1.75,321.625,0.986,-30.0,-149.0,975.0
2020-01-19 18:19:32.600000,-8.938,-1.75,321.625,0.986,-30.0,-149.0,975.0
2020-01-19 18:19:32.700000,-8.938,-1.75,321.625,0.987,-29.0,-149.0,976.0
2020-01-19 18:19:32.800000,-8.938,-1.75,321.625,0.986,-30.0,-150.0,975.0
2020-01-19 18:19:32.900000,-8.938,-1.75,321.625,0.986,-30.0,-150.0,975.0
2020-01-19 18:19:33,-8.938,-1.75,321.625,0.987,-30.0,-148.0,976.0
2020-01-19 18:19:33.100000,-8.938,-1.625,321.625,0.986,-35.0,-141.0,976.0
2020-01-19 18:19:33.200000,-8.938,-1.625,321.625,0.986,-35.0,-141.0,976.0
2020-01-19 18:19:33.300000,-8.938,-1.875,321.625,0.985,-27.0,-164.0,971.0
2020-01-19 18:19:33.400000,-8.938,-1.875,321.625,0.988,-35.0,-140.0,978.0
2020-01-19 18:19:33.500000,-8.938,-1.875,321.625,0.988,-35.0,-140.0,978.0
2020-01-19 18:19:33.600000,-8.938,-1.875,321.625,0.986,-33.0,-150.0,974.0
2020-01-19 18:19:33.700000,-8.938,-1.875,321.625,0.986,-33.0,-149.0,975.0
2020-01-19 18:19:33.800000,-8.938,-1.875,321.625,0.986,-33.0,-149.0,975.0
2020-01-19 18:19:33.900000,-8.938,-1.875,321.625,0.986,-32.0,-149.0,975.0
2020-01-19 18:19:34,-8.938,-1.875,321.625,0.986,-33.0,-149.0,975.0
2020-01-19 18:19:34.100000,-8.938,-1.875,321.625,0.986,-33.0,-149.0,975.0
2020-01-19 18:19:34.200000,-8.938,-1.875,321.625,0.986,-33.0,-148.0,975.0
2020-01-19 18:19:34.300000,-8.938,-1.875,321.625,0.988,-32.0,-149.0,977.0
2020-01-19 18:19:34.400000,-8.938,-1.875,321.625,0.988,-32.0,-149.0,977.0
2020-01-19 18:19:34.500000,-8.938,-1.875,321.625,0.983,-32.0,-149.0,972.0
2020-01-19 18:19:34.600000,-8.938,-1.875,321.625,0.985,-30.0,-150.0,974.0
2020-01-19 18:19:34.700000,-8.938,-1.875,321.625,0.985,-30.0,-150.0,974.0
2020-01-19 18:19:34.800000,-8.938,-1.875,321.625,0.986,-30.0,-150.0,975.0
2020-01-19 18:19:34.900000,-8.938,-1.875,321.625,0.988,-29.0,-148.0,977.0
2020-01-19 18:19:35,-8.938,-1.875,321.625,0.988,-29.0,-148.0,977.0
2020-01-19 18:19:35.100000,-8.938,-1.875,321.625,0.986,-32.0,-150.0,974.0
2020-01-19 18:19:35.200000,-8.938,-1.875,321.625,0.984,-30.0,-148.0,973.0
2020-01-19 18:19:35.300000,-8.938,-1.875,321.625,0.984,-30.0,-148.0,973.0
2020-01-19 18:19:35.400000,-8.938,-1.875,321.625,0.985,-29.0,-149.0,974.0
2020-01-19 18:19:35.500000,-8.938,-1.875,321.625,0.986,-30.0,-149.0,975.0
2020-01-19 18:19:35.600000,-8.938,-1.875,321.625,0.986,-30.0,-149.0,975.0
2020-01-19 18:19:35.700000,-8.938,-1.875,321.625,0.985,-29.0,-150.0,974.0
2020-01-19 18:19:35.800000,-8.938,-1.875,321.625,0.986,-31.0,-147.0,975.0
2020-01-19 18:19:35.900000,-8.938,-1.875,321.625,0.986,-31.0,-147.0,975.0
2020-01-19 18:19:36,-8.938,-1.875,321.625,0.987,-29.0,-149.0,976.0
2020-01-19 18:19:36.100000,-8.938,-1.875,321.625,0.988,-29.0,-150.0,977.0
2020-01-19 18:19:36.200000,-8.938,-1.875,321.625,0.988,-29.0,-150.0,977.0
2020-01-19 18:19:36.300000,-8.938,-1.875,321.625,0.986,-32.0,-150.0,974.0
2020-01-19 18:19:36.400000,-8.938,-1.875,321.625,0.986,-29.0,-149.0,975.0
2020-01-19 18:19:36.500000,-8.938,-1.875,321.625,0.986,-29.0,-149.0,975.0
2020-01-19 18:19:36.600000,-8.938,-1.875,321.625,0.986,-29.0,-150.0,975.0
2020-01-19 18:19:36.700000,-8.938,-1.875,321.625,0.986,-30.0,-149.0,975.0
2020-01-19 18:19:36.800000,-8.938,-1.875,321.625,0.986,-30.0,-149.0,975.0
2020-01-19 18:19:36.900000,-8.938,-1.875,321.625,0.986,-30.0,-150.0,975.0
2020-01-19 18:19:37,-8.938,-1.875,321.625,0.985,-30.0,-148.0,974.0
2020-01-19 18:19:37.100000,-8.938,-1.875,321.625,0.985,-30.0,-148.0,974.0
2020-01-19 18:19:37.200000,-8.938,-1.875,321.625,0.985,-29.0,-152.0,973.0
2020-01-19 18:19:37.300000,-8.938,-1.875,321.625,0.986,-30.0,-149.0,975.0
2020-01-19 18:19:37.400000,-8.938,-1.875,321.625,0.986,-30.0,-149.0,975.0
2020-01-19 18:19:37.500000,-8.938,-1.875,321.625,0.986,-31.0,-149.0,975.0
2020-01-19 18:19:37.600000,-8.938,-1.875,321.625,0.987,-28.0,-149.0,976.0
2020-01-19 18:19:37.700000,-8.938,-1.875,321.625,0.987,-28.0,-149.0,976.0
2020-01-19 18:19:37.800000,-8.938,-1.875,321.625,0.986,-30.0,-150.0,975.0
2020-01-19 18:19:37.900000,-8.938,-1.875,321.625,0.986,-30.0,-148.0,975.0
2020-01-19 18:19:38,-8.938,-1.875,321.625,0.986,-30.0,-148.0,975.0
2020-01-19 18:19:38.100000,-8.938,-1.875,321.625,0.986,-30.0,-151.0,974.0
2020-01-19 18:19:38.200000,-8.938,-1.875,321.625,0.986,-29.0,-152.0,974.0
2020-01-19 18:19:38.300000,-8.938,-1.875,321.625,0.986,-29.0,-152.0,974.0
2020-01-19 18:19:38.400000,-8.938,-1.875,321.625,0.987,-31.0,-147.0,976.0
2020-01-19 18:19:38.500000,-8.938,-1.875,321.625,0.986,-32.0,-149.0,975.0
2020-01-19 18:19:38.600000,-8.938,-1.875,321.625,0.986,-32.0,-149.0,975.0
2020-01-19 18:19:38.700000,-8.938,-1.875,321.625,0.986,-28.0,-152.0,974.0
2020-01-19 18:19:38.800000,-8.938,-1.875,321.625,0.987,-29.0,-148.0,976.0
2020-01-19 18:19:38.900000,-8.938,-1.875,321.625,0.987,-29.0,-148.0,976.0
2020-01-19 18:19:39,-8.938,-1.875,321.625,0.986,-31.0,-147.0,975.0
2020-01-19 18:19:39.100000,-8.938,-1.875,321.625,0.984,-29.0,-153.0,972.0
2020-01-19 18:19:39.200000,-8.938,-1.875,321.625,0.984,-29.0,-153.0,972.0
2020-01-19 18:19:39.300000,-8.938,-1.875,321.625,0.985,-29.0,-150.0,974.0
2020-01-19 18:19:39.400000,-8.938,-1.875,321.625,0.986,-31.0,-145.0,975.0
2020-01-19 18:19:39.500000,-8.938,-1.875,321.625,0.986,-31.0,-145.0,975.0
2020-01-19 18:19:39.600000,-8.938,-1.875,321.625,0.987,-29.0,-150.0,976.0
2020-01-19 18:19:39.700000,-8.938,-1.875,321.625,0.985,-31.0,-153.0,973.0
2020-01-19 18:19:39.800000,-8.938,-1.875,321.625,0.985,-31.0,-153.0,973.0
2020-01-19 18:19:39.900000,-8.938,-1.875,321.625,0.986,-28.0,-148.0,975.0
2020-01-19 18:19:40,-8.938,-1.875,321.625,0.985,-30.0,-150.0,974.0
2020-01-19 18:19:40.100000,-8.938,-1.875,321.625,0.985,-30.0,-150.0,974.0
2020-01-19 18:19:40.200000,-8.938,-1.875,321.625,0.986,-29.0,-150.0,975.0
2020-01-19 18:19:40.300000,-8.938,-1.875,321.625,0.986,-28.0,-148.0,975.0
2020-01-19 18:19:40.400000,-8.938,-1.875,321.625,0.986,-28.0,-148.0,975.0
2020-01-19 18:19:40.500000,-8.938,-1.875,321.625,0.985,-31.0,-149.0,974.0
2020-01-19 18:19:40.600000,-8.938,-1.875,321.625,0.986,-29.0,-150.0,975.0
2020-01-19 18:19:40.700000,-8.938,-1.875,321.625,0.986,-29.0,-150.0,975.0
2020-01-19 18:19:40.800000,-8.938,-1.875,321.625,0.986,-28.0,-150.0,975.0
2020-01-19 18:19:40.900000,-8.938,-1.875,321.625,0.986,-31.0,-147.0,975.0
2020-01-19 18:19:41,-8.938,-1.875,321.625,0.986,-31.0,-147.0,975.0
2020-01-19 18:19:41.100000,-8.938,-1.875,321.625,0.985,-29.0,-150.0,974.0
2020-01-19 18:19:41.200000,-8.938,-1.875,321.625,0.987,-29.0,-150.0,976.0
2020-01-19 18:19:41.300000,-8.938,-1.875,321.625,0.987,-29.0,-150.0,976.0
2020-01-19 18:19:41.400000,-8.938,-1.875,321.625,0.985,-29.0,-147.0,974.0
2020-01-19 18:19:41.500000,-8.938,-1.875,321.625,0.985,-29.0,-150.0,974.0
2020-01-19 18:19:41.600000,-8.938,-1.875,321.625,0.985,-29.0,-150.0,974.0
2020-01-19 18:19:41.700000,-8.938,-1.875,321.625,0.986,-30.0,-150.0,975.0
2020-01-19 18:19:41.800000,-8.938,-1.875,321.625,0.986,-29.0,-149.0,975.0
2020-01-19 18:19:41.900000,-8.938,-1.875,321.625,0.986,-29.0,-149.0,975.0
2020-01-19 18:19:42,-8.938,-1.875,321.625,0.986,-29.0,-149.0,975.0
2020-01-19 18:19:42.100000,-8.938,-1.875,321.625,0.986,-29.0,-149.0,975.0
2020-01-19 18:19:42.200000,-8.938,-1.875,321.625,0.986,-29.0,-149.0,975.0
2020-01-19 18:19:42.300000,-8.938,-1.875,321.625,0.986,-29.0,-150.0,975.0
2020-01-19 18:19:42.400000,-8.938,-1.875,321.625,0.986,-29.0,-150.0,975.0
2020-01-19 18:19:42.500000,-8.938,-1.875,321.625,0.986,-29.0,-150.0,975.0
2020-01-19 18:19:42.600000,-8.938,-1.875,321.625,0.986,-29.0,-150.0,975.0
2020-01-19 18:19:42.700000,-8.938,-1.875,321.625,0.985,-29.0,-149.0,974.0
2020-01-19 18:19:42.800000,-8.938,-1.875,321.625,0.985,-29.0,-149.0,974.0
2020-01-19 18:19:42.900000,-8.938,-1.875,321.625,0.986,-29.0,-150.0,975.0
2020-01-19 18:19:43,-8.938,-1.875,321.625,0.986,-29.0,-149.0,975.0
2020-01-19 18:19:43.100000,-8.938,-1.875,321.625,0.986,-29.0,-149.0,975.0
2020-01-19 18:19:43.200000,-8.938,-1.875,321.625,0.986,-30.0,-150.0,975.0
2020-01-19 18:19:43.300000,-8.938,-1.875,321.625,0.985,-30.0,-148.0,974.0
2020-01-19 18:19:43.400000,-8.938,-1.875,321.625,0.985,-30.0,-148.0,974.0
2020-01-19 18:19:43.500000,-8.938,-1.875,321.625,0.986,-29.0,-150.0,975.0
2020-01-19 18:19:43.600000,-8.938,-1.875,321.625,0.985,-30.0,-149.0,974.0
2020-01-19 18:19:43.700000,-8.938,-1.875,321.625,0.985,-30.0,-149.0,974.0
2020-01-19 18:19:43.800000,-8.938,-1.875,321.625,0.987,-28.0,-150.0,976.0
2020-01-19 18:19:43.900000,-8.938,-1.875,321.625,0.986,-31.0,-148.0,975.0
2020-01-19 18:19:44,-8.938,-1.875,321.625,0.986,-31.0,-148.0,975.0
2020-01-19 18:19:44.100000,-8.938,-1.875,321.625,0.986,-30.0,-149.0,975.0
2020-01-19 18:19:44.200000,-8.938,-1.875,321.625,0.986,-29.0,-150.0,975.0
2020-01-19 18:19:44.300000,-8.938,-1.875,321.625,0.986,-29.0,-150.0,975.0
2020-01-19 18:19:44.400000,-8.938,-1.875,321.625,0.987,-28.0,-151.0,975.0
2020-01-19 18:19:44.500000,-8.938,-1.875,321.625,0.986,-30.0,-148.0,975.0
2020-01-19 18:19:44.600000,-8.938,-1.875,321.625,0.986,-30.0,-148.0,975.0
2020-01-19 18:19:44.700000,-8.938,-1.875,321.625,0.986,-29.0,-150.0,975.0
2020-01-19 18:19:44.800000,-8.938,-1.875,321.625,0.986,-29.0,-149.0,975.0
2020-01-19 18:19:44.900000,-8.938,-1.875,321.625,0.986,-29.0,-149.0,975.0
2020-01-19 18:19:45,-8.938,-1.875,321.625,0.986,-30.0,-149.0,975.0
2020-01-19 18:19:45.100000,-8.938,-1.875,321.625,0.986,-30.0,-149.0,975.0
2020-01-19 18:19:45.200000,-8.938,-1.875,321.625,0.986,-30.0,-149.0,975.0
2020-01-19 18:19:45.300000,-8.938,-1.875,321.625,0.986,-30.0,-149.0,975.0
2020-01-19 18:19:45.400000,-8.938,-1.875,321.625,0.986,-29.0,-150.0,975.0
2020-01-19 18:19:45.500000,-8.938,-1.875,321.625,0.986,-30.0,-149.0,975.0
2020-01-19 18:19:45.600000,-8.938,-1.875,321.625,0.986,-30.0,-149.0,975.0
2020-01-19 18:19:45.700000,-8.938,-1.875,321.625,0.986,-30.0,-150.0,975.0
2020-01-19 18:19:45.800000,-8.938,-1.875,321.625,0.986,-30.0,-150.0,975.0
2020-01-19 18:19:45.900000,-8.938,-1.875,321.625,0.986,-30.0,-150.0,975.0
2020-01-19 18:19:46,-8.938,-1.875,321.625,0.985,-30.0,-150.0,974.0
2020-01-19 18:19:46.100000,-8.938,-1.875,321.625,0.985,-30.0,-150.0,974.0
2020-01-19 18:19:46.200000,-8.938,-1.875,321.625,0.987,-30.0,-149.0,976.0
2020-01-19 18:19:46.300000,-8.938,-1.875,321.625,0.985,-29.0,-150.0,974.0
2020-01-19 18:19:46.400000,-8.938,-1.875,321.625,0.985,-29.0,-150.0,974.0
2020-01-19 18:19:46.500000,-8.938,-1.875,321.625,0.986,-30.0,-149.0,975.0
2020-01-19 18:19:46.600000,-8.938,-1.875,321.625,0.987,-29.0,-150.0,976.0
2020-01-19 18:19:46.700000,-8.938,-1.875,321.625,0.987,-29.0,-150.0,976.0
2020-01-19 18:19:46.800000,-8.938,-1.875,321.625,0.986,-30.0,-149.0,975.0
2020-01-19 18:19:46.900000,-8.938,-1.875,321.625,0.987,-30.0,-149.0,976.0
2020-01-19 18:19:47,-8.938,-1.875,321.625,0.987,-30.0,-149.0,976.0
2020-01-19 18:19:47.100000,-8.938,-1.875,321.625,0.986,-30.0,-149.0,975.0
2020-01-19 18:19:47.200000,-8.938,-1.875,321.625,0.985,-29.0,-149.0,974.0
2020-01-19 18:19:47.300000,-8.938,-1.875,321.625,0.985,-29.0,-149.0,974.0
2020-01-19 18:19:47.400000,-8.938,-1.875,321.625,0.987,-29.0,-151.0,975.0
2020-01-19 18:19:47.500000,-8.938,-1.875,321.625,0.986,-30.0,-149.0,975.0
2020-01-19 18:19:47.600000,-8.938,-1.875,321.625,0.986,-30.0,-149.0,975.0
2020-01-19 18:19:47.700000,-8.938,-1.875,321.625,0.986,-30.0,-149.0,975.0
2020-01-19 18:19:47.800000,-8.938,-1.875,321.625,0.986,-29.0,-150.0,975.0
2020-01-19 18:19:47.900000,-8.938,-1.875,321.625,0.986,-29.0,-150.0,975.0
2020-01-19 18:19:48,-8.938,-1.875,321.625,0.986,-30.0,-149.0,975.0
2020-01-19 18:19:48.100000,-8.938,-1.875,321.625,0.987,-30.0,-149.0,976.0
2020-01-19 18:19:48.200000,-8.938,-1.875,321.625,0.987,-30.0,-149.0,976.0
2020-01-19 18:19:48.300000,-8.938,-1.875,321.625,0.985,-30.0,-149.0,974.0
2020-01-19 18:19:48.400000,-8.938,-1.875,321.625,0.986,-30.0,-149.0,975.0
2020-01-19 18:19:48.500000,-8.938,-1.875,321.625,0.986,-30.0,-149.0,975.0
2020-01-19 18:19:48.600000,-8.938,-1.875,321.625,0.986,-30.0,-149.0,975.0
2020-01-19 18:19:48.700000,-8.938,-1.875,321.625,0.985,-29.0,-150.0,974.0
2020-01-19 18:19:48.800000,-8.938,-1.875,321.625,0.985,-29.0,-150.0,974.0
2020-01-19 18:19:48.900000,-8.938,-1.875,321.625,0.986,-30.0,-149.0,975.0
2020-01-19 18:19:49,-8.938,-1.875,321.625,0.986,-30.0,-149.0,975.0
2020-01-19 18:19:49.100000,-8.938,-1.875,321.625,0.986,-30.0,-149.0,975.0
2020-01-19 18:19:49.200000,-8.938,-1.875,321.625,0.986,-30.0,-150.0,975.0
2020-01-19 18:19:49.300000,-8.938,-1.875,321.625,0.986,-30.0,-149.0,975.0
2020-01-19 18:19:49.400000,-8.938,-1.875,321.625,0.986,-30.0,-149.0,975.0
2020-01-19 18:19:49.500000,-8.938,-1.875,321.625,0.986,-30.0,-150.0,975.0
2020-01-19 18:19:49.600000,-8.938,-1.875,321.625,0.986,-30.0,-150.0,975.0
2020-01-19 18:19:49.700000,-8.938,-1.875,321.625,0.986,-30.0,-149.0,975.0
2020-01-19 18:19:49.800000,-8.938,-1.875,321.625,0.986,-30.0,-149.0,975.0
2020-01-19 18:19:49.900000,-8.938,-1.875,321.625,0.986,-30.0,-149.0,975.0
2020-01-19 18:19:50,-8.938,-1.875,321.625,0.986,-30.0,-149.0,975.0
2020-01-19 18:19:50.100000,-8.938,-1.875,321.625,0.986,-29.0,-150.0,975.0
2020-01-19 18:19:50.200000,-8.938,-1.875,321.625,0.986,-30.0,-150.0,975.0
2020-01-19 18:19:50.300000,-8.938,-1.875,321.625,0.986,-30.0,-150.0,975.0
2020-01-19 18:19:50.400000,-8.938,-1.875,321.625,0.986,-30.0,-150.0,975.0
2020-01-19 18:19:50.500000,-8.938,-1.875,321.625,0.986,-29.0,-149.0,975.0
2020-01-19 18:19:50.600000,-8.938,-1.875,321.625,0.986,-29.0,-149.0,975.0
2020-01-19 18:19:50.700000,-8.938,-1.875,321.625,0.986,-29.0,-149.0,975.0
2020-01-19 18:19:50.800000,-8.938,-1.875,321.625,0.987,-30.0,-149.0,976.0
2020-01-19 18:19:50.900000,-8.938,-1.875,321.625,0.986,-29.0,-150.0,975.0
2020-01-19 18:19:51,-8.938,-1.875,321.625,0.986,-29.0,-150.0,975.0
2020-01-19 18:19:51.100000,-8.938,-1.875,321.625,0.986,-29.0,-150.0,975.0
2020-01-19 18:19:51.200000,-8.938,-1.875,321.625,0.987,-30.0,-149.0,976.0
2020-01-19 18:19:51.300000,-8.938,-1.875,321.625,0.987,-30.0,-149.0,976.0
2020-01-19 18:19:51.400000,-8.938,-1.875,321.625,0.985,-29.0,-150.0,974.0
2020-01-19 18:19:51.500000,-8.938,-1.875,321.625,0.985,-30.0,-149.0,974.0
2020-01-19 18:19:51.600000,-8.938,-1.875,321.625,0.985,-30.0,-149.0,974.0
2020-01-19 18:19:51.700000,-8.938,-1.875,321.625,0.986,-29.0,-150.0,975.0
2020-01-19 18:19:51.800000,-8.938,-1.875,321.625,0.985,-30.0,-150.0,974.0
2020-01-19 18:19:51.900000,-8.938,-1.875,321.625,0.985,-30.0,-150.0,974.0
2020-01-19 18:19:52,-8.938,-1.875,321.625,0.987,-29.0,-150.0,976.0
2020-01-19 18:19:52.100000,-8.938,-1.875,321.625,0.986,-30.0,-149.0,975.0
2020-01-19 18:19:52.200000,-8.938,-1.875,321.625,0.986,-30.0,-149.0,975.0
2020-01-19 18:19:52.300000,-8.938,-1.875,321.625,0.986,-30.0,-149.0,975.0
2020-01-19 18:19:52.400000,-8.938,-1.875,321.625,0.985,-29.0,-149.0,974.0
2020-01-19 18:19:52.500000,-8.938,-1.875,321.625,0.985,-29.0,-149.0,974.0
2020-01-19 18:19:52.600000,-8.938,-1.875,321.625,0.986,-29.0,-149.0,975.0
2020-01-19 18:19:52.700000,-8.938,-1.875,321.625,0.986,-30.0,-149.0,975.0
2020-01-19 18:19:52.800000,-8.938,-1.875,321.625,0.986,-30.0,-149.0,975.0
2020-01-19 18:19:52.900000,-8.938,-1.875,321.625,0.986,-30.0,-150.0,975.0
2020-01-19 18:19:53,-8.938,-1.875,321.625,0.986,-29.0,-150.0,975.0
2020-01-19 18:19:53.100000,-8.938,-1.875,321.625,0.986,-29.0,-150.0,975.0
2020-01-19 18:19:53.200000,-8.938,-1.875,321.625,0.986,-30.0,-150.0,975.0
2020-01-19 18:19:53.300000,-8.938,-1.875,321.625,0.986,-30.0,-149.0,975.0
2020-01-19 18:19:53.400000,-8.938,-1.875,321.625,0.986,-30.0,-149.0,975.0
2020-01-19 18:19:53.500000,-8.938,-1.875,321.625,0.988,-29.0,-150.0,977.0
2020-01-19 18:19:53.600000,-8.938,-1.875,321.625,0.985,-29.0,-150.0,974.0
2020-01-19 18:19:53.700000,-8.938,-1.875,321.625,0.985,-29.0,-150.0,974.0
2020-01-19 18:19:53.800000,-8.938,-1.875,321.625,0.987,-29.0,-149.0,976.0
2020-01-19 18:19:53.900000,-8.938,-1.875,321.625,0.987,-30.0,-149.0,976.0
2020-01-19 18:19:54,-8.938,-1.875,321.625,0.987,-30.0,-149.0,976.0
2020-01-19 18:19:54.100000,-8.938,-1.875,321.625,0.985,-30.0,-150.0,974.0
2020-01-19 18:19:54.200000,-8.938,-1.875,321.625,0.986,-29.0,-149.0,975.0
2020-01-19 18:19:54.300000,-8.938,-1.875,321.625,0.986,-29.0,-149.0,975.0
2020-01-19 18:19:54.400000,-8.938,-1.875,321.625,0.986,-29.0,-150.0,975.0
2020-01-19 18:19:54.500000,-8.938,-1.875,321.625,0.987,-30.0,-149.0,976.0
2020-01-19 18:19:54.600000,-8.938,-1.875,321.625,0.987,-30.0,-149.0,976.0
2020-01-19 18:19:54.700000,-8.938,-1.875,321.625,0.986,-30.0,-149.0,975.0
2020-01-19 18:19:54.800000,-8.938,-1.875,321.625,0.986,-29.0,-149.0,975.0
2020-01-19 18:19:54.900000,-8.938,-1.875,321.625,0.986,-29.0,-149.0,975.0
2020-01-19 18:19:55,-8.938,-1.875,321.625,0.985,-30.0,-149.0,974.0
2020-01-19 18:19:55.100000,-8.938,-1.875,321.625,0.986,-29.0,-150.0,975.0
2020-01-19 18:19:55.200000,-8.938,-1.875,321.625,0.986,-29.0,-150.0,975.0
2020-01-19 18:19:55.300000,-8.938,-1.875,321.625,0.987,-29.0,-149.0,976.0
2020-01-19 18:19:55.400000,-8.938,-1.875,321.625,0.985,-30.0,-149.0,974.0
2020-01-19 18:19:55.500000,-8.938,-1.875,321.625,0.985,-30.0,-149.0,974.0
2020-01-19 18:19:55.600000,-8.938,-1.875,321.625,0.986,-28.0,-150.0,975.0
2020-01-19 18:19:55.700000,-8.938,-1.875,321.625,0.986,-30.0,-148.0,975.0
2020-01-19 18:19:55.800000,-8.938,-1.875,321.625,0.986,-30.0,-148.0,975.0
2020-01-19 18:19:55.900000,-8.938,-1.875,321.625,0.986,-30.0,-149.0,975.0
2020-01-19 18:19:56,-8.938,-1.875,321.625,0.987,-30.0,-150.0,976.0
2020-01-19 18:19:56.100000,-8.938,-1.875,321.625,0.987,-30.0,-150.0,976.0
2020-01-19 18:19:56.200000,-8.938,-1.875,321.625,0.987,-29.0,-151.0,975.0
2020-01-19 18:19:56.300000,-8.938,-1.875,321.625,0.987,-29.0,-149.0,976.0
2020-01-19 18:19:56.400000,-8.938,-1.875,321.625,0.987,-29.0,-149.0,976.0
2020-01-19 18:19:56.500000,-8.938,-1.875,321.625,0.985,-31.0,-148.0,974.0
2020-01-19 18:19:56.600000,-8.938,-1.875,321.625,0.986,-30.0,-150.0,975.0
2020-01-19 18:19:56.700000,-8.938,-1.875,321.625,0.986,-30.0,-150.0,975.0
2020-01-19 18:19:56.800000,-8.938,-1.875,321.625,0.986,-30.0,-149.0,975.0
2020-01-19 18:19:56.900000,-8.938,-1.875,321.625,0.986,-31.0,-149.0,975.0
2020-01-19 18:19:57,-8.938,-1.875,321.625,0.986,-31.0,-149.0,975.0
2020-01-19 18:19:57.100000,-8.938,-1.875,321.625,0.986,-30.0,-151.0,974.0
2020-01-19 18:19:57.200000,-8.938,-1.875,321.625,0.988,-28.0,-148.0,977.0
2020-01-19 18:19:57.300000,-8.938,-1.875,321.625,0.988,-28.0,-148.0,977.0
2020-01-19 18:19:57.400000,-8.938,-1.875,321.625,0.986,-32.0,-149.0,975.0
2020-01-19 18:19:57.500000,-8.938,-1.875,321.625,0.987,-30.0,-151.0,975.0
2020-01-19 18:19:57.600000,-8.938,-1.875,321.625,0.987,-30.0,-151.0,975.0
2020-01-19 18:19:57.700000,-8.938,-1.875,321.625,0.986,-29.0,-149.0,975.0
2020-01-19 18:19:57.800000,-8.938,-1.875,321.625,0.986,-31.0,-148.0,975.0
2020-01-19 18:19:57.900000,-8.938,-1.875,321.625,0.986,-31.0,-148.0,975.0
2020-01-19 18:19:58,-8.938,-1.875,321.625,0.985,-29.0,-150.0,974.0
2020-01-19 18:19:58.100000,-8.938,-1.875,321.625,0.986,-31.0,-150.0,975.0
2020-01-19 18:19:58.200000,-8.938,-1.875,321.625,0.986,-31.0,-150.0,975.0
2020-01-19 18:19:58.300000,-8.938,-1.875,321.625,0.987,-30.0,-149.0,976.0
2020-01-19 18:19:58.400000,-8.938,-1.875,321.625,0.987,-29.0,-150.0,976.0
2020-01-19 18:19:58.500000,-8.938,-1.875,321.625,0.987,-29.0,-150.0,976.0
2020-01-19 18:19:58.600000,-8.938,-1.875,321.625,0.987,-29.0,-151.0,975.0
2020-01-19 18:19:58.700000,-8.938,-1.875,321.625,0.986,-32.0,-146.0,975.0
2020-01-19 18:19:58.800000,-8.938,-1.875,321.625,0.986,-32.0,-146.0,975.0
2020-01-19 18:19:58.900000,-8.938,-1.875,321.625,0.988,-30.0,-151.0,976.0
2020-01-19 18:19:59,-8.938,-1.875,321.625,0.986,-29.0,-151.0,974.0
2020-01-19 18:19:59.100000,-8.938,-1.875,321.625,0.986,-29.0,-151.0,974.0
2020-01-19 18:19:59.200000,-8.938,-1.875,321.625,0.986,-30.0,-148.0,975.0
2020-01-19 18:19:59.300000,-8.938,-1.875,321.625,0.987,-30.0,-149.0,976.0
2020-01-19 18:19:59.400000,-8.938,-1.875,321.625,0.987,-30.0,-149.0,976.0
2020-01-19 18:19:59.500000,-8.938,-1.875,321.625,0.986,-30.0,-151.0,974.0
2020-01-19 18:19:59.600000,-8.938,-1.875,321.625,0.988,-30.0,-147.0,977.0
2020-01-19 18:19:59.700000,-8.938,-1.875,321.625,0.988,-30.0,-147.0,977.0
2020-01-19 18:19:59.800000,-8.938,-1.875,321.625,0.986,-30.0,-150.0,975.0
2020-01-19 18:19:59.900000,-8.938,-1.875,321.625,0.987,-29.0,-152.0,975.0
2020-01-19 18:20:00,-8.938,-1.875,321.625,0.987,-29.0,-152.0,975.0
2020-01-19 18:20:00.100000,-8.938,-1.875,321.625,0.987,-29.0,-149.0,976.0
2020-01-19 18:20:00.200000,-8.938,-1.875,321.625,0.986,-31.0,-148.0,975.0
2020-01-19 18:20:00.300000,-8.938,-1.875,321.625,0.986,-31.0,-148.0,975.0
2020-01-19 18:20:00.400000,-8.938,-1.875,321.625,0.987,-29.0,-152.0,975.0
2020-01-19 18:20:00.500000,-8.938,-1.875,321.625,0.987,-28.0,-150.0,976.0
2020-01-19 18:20:00.600000,-8.938,-1.875,321.625,0.987,-28.0,-150.0,976.0
2020-01-19 18:20:00.700000,-8.938,-1.875,321.625,0.986,-31.0,-148.0,975.0
2020-01-19 18:20:00.800000,-8.938,-1.875,321.625,0.986,-29.0,-149.0,975.0
2020-01-19 18:20:00.900000,-8.938,-1.875,321.625,0.986,-29.0,-149.0,975.0
2020-01-19 18:20:01,-8.938,-1.875,321.625,0.987,-28.0,-150.0,976.0
2020-01-19 18:20:01.100000,-8.938,-1.875,321.625,0.986,-31.0,-148.0,975.0
2020-01-19 18:20:01.200000,-8.938,-1.875,321.625,0.986,-31.0,-148.0,975.0
2020-01-19 18:20:01.300000,-8.938,-1.875,321.625,0.986,-30.0,-149.0,975.0
2020-01-19 18:20:01.400000,-8.938,-1.875,321.625,0.988,-29.0,-151.0,976.0
2020-01-19 18:20:01.500000,-8.938,-1.875,321.625,0.988,-29.0,-151.0,976.0
2020-01-19 18:20:01.600000,-8.938,-1.875,321.625,0.987,-31.0,-149.0,976.0
2020-01-19 18:20:01.700000,-8.938,-1.875,321.625,0.987,-30.0,-149.0,976.0
2020-01-19 18:20:01.800000,-8.938,-1.875,321.625,0.987,-30.0,-149.0,976.0
2020-01-19 18:20:01.900000,-8.938,-1.875,321.625,0.985,-29.0,-149.0,974.0
2020-01-19 18:20:02,-8.938,-1.875,321.625,0.987,-29.0,-148.0,976.0
2020-01-19 18:20:02.100000,-8.938,-1.875,321.625,0.987,-29.0,-148.0,976.0
2020-01-19 18:20:02.200000,-8.938,-1.875,321.625,0.986,-30.0,-150.0,975.0
2020-01-19 18:20:02.300000,-8.938,-1.875,321.625,0.986,-29.0,-150.0,975.0
2020-01-19 18:20:02.400000,-8.938,-1.875,321.625,0.986,-29.0,-150.0,975.0
2020-01-19 18:20:02.500000,-8.938,-1.875,321.625,0.987,-29.0,-148.0,976.0
2020-01-19 18:20:02.600000,-8.938,-1.875,321.625,0.986,-31.0,-149.0,975.0
2020-01-19 18:20:02.700000,-8.938,-1.875,321.625,0.986,-31.0,-149.0,975.0
2020-01-19 18:20:02.800000,-8.938,-1.875,321.625,0.986,-29.0,-150.0,975.0
2020-01-19 18:20:02.900000,-8.938,-1.875,321.625,0.986,-30.0,-149.0,975.0
2020-01-19 18:20:03,-8.938,-1.875,321.625,0.986,-30.0,-149.0,975.0
2020-01-19 18:20:03.100000,-8.938,-1.875,321.625,0.986,-31.0,-149.0,975.0
2020-01-19 18:20:03.200000,-8.938,-1.875,321.625,0.986,-29.0,-150.0,975.0
2020-01-19 18:20:03.300000,-8.938,-1.875,321.625,0.986,-29.0,-150.0,975.0
2020-01-19 18:20:03.400000,-8.938,-1.875,321.625,0.987,-28.0,-150.0,976.0
2020-01-19 18:20:03.500000,-8.938,-1.875,321.625,0.986,-31.0,-149.0,975.0
2020-01-19 18:20:03.600000,-8.938,-1.875,321.625,0.986,-31.0,-149.0,975.0
2020-01-19 18:20:03.700000,-8.938,-1.875,321.625,0.987,-30.0,-150.0,976.0
2020-01-19 18:20:03.800000,-8.938,-1.875,321.625,0.986,-28.0,-149.0,975.0
2020-01-19 18:20:03.900000,-8.938,-1.875,321.625,0.986,-28.0,-149.0,975.0
2020-01-19 18:20:04,-8.938,-1.875,321.625,0.985,-30.0,-149.0,974.0
2020-01-19 18:20:04.100000,-8.938,-1.875,321.625,0.985,-29.0,-150.0,974.0
2020-01-19 18:20:04.200000,-8.938,-1.875,321.625,0.985,-29.0,-150.0,974.0
2020-01-19 18:20:04.300000,-8.938,-1.875,321.625,0.986,-29.0,-149.0,975.0
2020-01-19 18:20:04.400000,-8.938,-1.875,321.625,0.987,-31.0,-149.0,976.0
2020-01-19 18:20:04.500000,-8.938,-1.875,321.625,0.987,-31.0,-149.0,976.0
2020-01-19 18:20:04.600000,-8.938,-1.875,321.625,0.986,-29.0,-150.0,975.0
2020-01-19 18:20:04.700000,-8.938,-1.875,321.625,0.986,-29.0,-149.0,975.0
2020-01-19 18:20:04.800000,-8.938,-1.875,321.625,0.986,-29.0,-149.0,975.0
2020-01-19 18:20:04.900000,-8.938,-1.875,321.625,0.986,-30.0,-149.0,975.0
2020-01-19 18:20:05,-8.938,-1.875,321.625,0.986,-29.0,-150.0,975.0
2020-01-19 18:20:05.100000,-8.938,-1.875,321.625,0.986,-29.0,-150.0,975.0
2020-01-19 18:20:05.200000,-8.938,-1.875,321.625,0.987,-29.0,-149.0,976.0
2020-01-19 18:20:05.300000,-8.938,-1.875,321.625,0.986,-29.0,-149.0,975.0
2020-01-19 18:20:05.400000,-8.938,-1.875,321.625,0.986,-29.0,-149.0,975.0
2020-01-19 18:20:05.500000,-8.938,-1.875,321.625,0.986,-29.0,-149.0,975.0
2020-01-19 18:20:05.600000,-8.938,-1.875,321.625,0.986,-29.0,-149.0,975.0
2020-01-19 18:20:05.700000,-8.938,-1.875,321.625,0.986,-29.0,-149.0,975.0
2020-01-19 18:20:05.800000,-8.938,-1.875,321.625,0.987,-30.0,-149.0,976.0
2020-01-19 18:20:05.900000,-8.938,-1.875,321.625,0.985,-30.0,-149.0,974.0
2020-01-19 18:20:06,-8.938,-1.875,321.625,0.985,-30.0,-149.0,974.0
2020-01-19 18:20:06.100000,-8.938,-1.875,321.625,0.986,-29.0,-149.0,975.0
2020-01-19 18:20:06.200000,-8.938,-1.875,321.625,0.986,-29.0,-150.0,975.0
2020-01-19 18:20:06.300000,-8.938,-1.875,321.625,0.986,-29.0,-150.0,975.0
2020-01-19 18:20:06.400000,-8.938,-1.875,321.625,0.986,-29.0,-149.0,975.0
2020-01-19 18:20:06.500000,-8.938,-1.875,321.625,0.987,-29.0,-150.0,976.0
2020-01-19 18:20:06.600000,-8.938,-1.875,321.625,0.987,-29.0,-150.0,976.0
2020-01-19 18:20:06.700000,-8.938,-1.875,321.625,0.987,-29.0,-150.0,976.0
2020-01-19 18:20:06.800000,-8.938,-1.875,321.625,0.986,-30.0,-149.0,975.0
2020-01-19 18:20:06.900000,-8.938,-1.875,321.625,0.986,-30.0,-149.0,975.0
2020-01-19 18:20:07,-8.938,-1.875,321.625,0.986,-30.0,-149.0,975.0
2020-01-19 18:20:07.100000,-8.938,-1.875,321.625,0.987,-29.0,-149.0,976.0
2020-01-19 18:20:07.200000,-8.938,-1.875,321.625,0.987,-29.0,-149.0,976.0
2020-01-19 18:20:07.300000,-8.938,-1.875,321.625,0.986,-30.0,-150.0,975.0
2020-01-19 18:20:07.400000,-8.938,-1.875,321.625,0.987,-29.0,-149.0,976.0
2020-01-19 18:20:07.500000,-8.938,-1.875,321.625,0.987,-29.0,-149.0,976.0
2020-01-19 18:20:07.600000,-8.938,-1.875,321.625,0.986,-30.0,-149.0,975.0
2020-01-19 18:20:07.700000,-8.938,-1.875,321.625,0.988,-30.0,-148.0,977.0
2020-01-19 18:20:07.800000,-8.938,-1.875,321.625,0.988,-30.0,-148.0,977.0
2020-01-19 18:20:07.900000,-8.938,-1.875,321.625,0.987,-30.0,-149.0,976.0
2020-01-19 18:20:08,-8.938,-1.875,321.625,0.986,-29.0,-150.0,975.0
2020-01-19 18:20:08.100000,-8.938,-1.875,321.625,0.986,-29.0,-150.0,975.0
2020-01-19 18:20:08.200000,-8.938,-1.875,321.625,0.986,-29.0,-149.0,975.0
2020-01-19 18:20:08.300000,-8.938,-1.875,321.625,0.986,-28.0,-149.0,975.0
2020-01-19 18:20:08.400000,-8.938,-1.875,321.625,0.986,-28.0,-149.0,975.0
2020-01-19 18:20:08.500000,-8.938,-1.875,321.625,0.986,-29.0,-150.0,975.0
2020-01-19 18:20:08.600000,-8.938,-1.875,321.625,0.986,-29.0,-150.0,975.0
2020-01-19 18:20:08.700000,-8.938,-1.875,321.625,0.986,-29.0,-150.0,975.0
2020-01-19 18:20:08.800000,-8.938,-1.875,321.625,0.986,-28.0,-150.0,975.0
2020-01-19 18:20:08.900000,-8.938,-1.875,321.625,0.986,-30.0,-148.0,975.0
2020-01-19 18:20:09,-8.938,-1.875,321.625,0.986,-30.0,-148.0,975.0
2020-01-19 18:20:09.100000,-8.938,-1.875,321.625,0.987,-29.0,-150.0,976.0
2020-01-19 18:20:09.200000,-8.938,-1.875,321.625,0.986,-29.0,-150.0,975.0
2020-01-19 18:20:09.300000,-8.938,-1.875,321.625,0.986,-29.0,-150.0,975.0
2020-01-19 18:20:09.400000,-8.938,-1.875,321.625,0.986,-29.0,-150.0,975.0
2020-01-19 18:20:09.500000,-8.938,-1.875,321.625,0.986,-30.0,-149.0,975.0
2020-01-19 18:20:09.600000,-8.938,-1.875,321.625,0.986,-30.0,-149.0,975.0
2020-01-19 18:20:09.700000,-8.938,-1.875,321.625,0.986,-30.0,-150.0,975.0
2020-01-19 18:20:09.800000,-8.938,-1.875,321.625,0.986,-29.0,-149.0,975.0
2020-01-19 18:20:09.900000,-8.938,-1.875,321.625,0.986,-29.0,-149.0,975.0
2020-01-19 18:20:10,-8.938,-1.875,321.625,0.986,-29.0,-150.0,975.0
2020-01-19 18:20:10.100000,-8.938,-1.875,321.625,0.987,-29.0,-149.0,976.0
2020-01-19 18:20:10.200000,-8.938,-1.875,321.625,0.987,-29.0,-149.0,976.0
2020-01-19 18:20:10.300000,-8.938,-1.875,321.625,0.986,-29.0,-149.0,975.0
2020-01-19 18:20:10.400000,-8.938,-1.875,321.625,0.985,-29.0,-149.0,974.0
2020-01-19 18:20:10.500000,-8.938,-1.875,321.625,0.985,-29.0,-149.0,974.0
2020-01-19 18:20:10.600000,-8.938,-1.875,321.625,0.987,-29.0,-150.0,976.0
2020-01-19 18:20:10.700000,-8.938,-1.875,321.625,0.987,-29.0,-150.0,976.0
2020-01-19 18:20:10.800000,-8.938,-1.875,321.625,0.987,-29.0,-150.0,976.0
2020-01-19 18:20:10.900000,-8.938,-1.875,321.625,0.986,-29.0,-149.0,975.0
2020-01-19 18:20:11,-8.938,-1.875,321.625,0.986,-29.0,-149.0,975.0
2020-01-19 18:20:11.100000,-8.938,-1.875,321.625,0.986,-29.0,-149.0,975.0
2020-01-19 18:20:11.200000,-8.938,-1.875,321.625,0.986,-29.0,-150.0,975.0
2020-01-19 18:20:11.300000,-8.938,-1.875,321.625,0.986,-29.0,-150.0,975.0
2020-01-19 18:20:11.400000,-8.938,-1.875,321.625,0.986,-29.0,-150.0,975.0
2020-01-19 18:20:11.500000,-8.938,-1.875,321.625,0.986,-29.0,-149.0,975.0
2020-01-19 18:20:11.600000,-8.938,-1.875,321.625,0.986,-29.0,-150.0,975.0
2020-01-19 18:20:11.700000,-8.938,-1.875,321.625,0.986,-29.0,-150.0,975.0
2020-01-19 18:20:11.800000,-8.938,-1.875,321.625,0.986,-29.0,-149.0,975.0
2020-01-19 18:20:11.900000,-8.938,-1.875,321.625,0.986,-29.0,-150.0,975.0
2020-01-19 18:20:12,-8.938,-1.875,321.625,0.986,-29.0,-149.0,975.0
2020-01-19 18:20:12.100000,-8.938,-1.875,321.625,0.986,-29.0,-149.0,975.0
2020-01-19 18:20:12.200000,-8.938,-1.875,321.625,0.986,-29.0,-149.0,975.0
2020-01-19 18:20:12.300000,-8.938,-1.875,321.625,0.986,-29.0,-150.0,975.0
2020-01-19 18:20:12.400000,-8.938,-1.875,321.625,0.986,-29.0,-150.0,975.0
2020-01-19 18:20:12.500000,-8.938,-1.875,321.625,0.987,-28.0,-151.0,975.0
2020-01-19 18:20:12.600000,-8.938,-1.875,321.625,0.987,-30.0,-148.0,976.0
2020-01-19 18:20:12.700000,-8.938,-1.875,321.625,0.987,-30.0,-148.0,976.0
2020-01-19 18:20:12.800000,-8.938,-1.875,321.625,0.987,-29.0,-149.0,976.0
2020-01-19 18:20:12.900000,-8.938,-1.875,321.625,0.986,-29.0,-150.0,975.0
2020-01-19 18:20:13,-8.938,-1.875,321.625,0.986,-29.0,-150.0,975.0
2020-01-19 18:20:13.100000,-8.938,-1.875,321.625,0.986,-28.0,-150.0,975.0
2020-01-19 18:20:13.200000,-8.938,-1.875,321.625,0.987,-30.0,-149.0,976.0
2020-01-19 18:20:13.300000,-8.938,-1.875,321.625,0.987,-30.0,-149.0,976.0
2020-01-19 18:20:13.400000,-8.938,-1.875,321.625,0.986,-29.0,-150.0,975.0
2020-01-19 18:20:13.500000,-8.938,-1.875,321.625,0.986,-29.0,-149.0,975.0
2020-01-19 18:20:13.600000,-8.938,-1.875,321.625,0.986,-29.0,-149.0,975.0
2020-01-19 18:20:13.700000,-8.938,-1.875,321.625,0.986,-29.0,-150.0,975.0
2020-01-19 18:20:13.800000,-8.938,-1.875,321.625,0.987,-29.0,-150.0,976.0
2020-01-19 18:20:13.900000,-8.938,-1.875,321.625,0.987,-29.0,-150.0,976.0
2020-01-19 18:20:14,-8.938,-1.875,321.625,0.986,-29.0,-149.0,975.0
2020-01-19 18:20:14.100000,-8.938,-1.875,321.625,0.986,-30.0,-149.0,975.0
2020-01-19 18:20:14.200000,-8.938,-1.875,321.625,0.986,-30.0,-149.0,975.0
2020-01-19 18:20:14.300000,-8.938,-1.875,321.625,0.986,-28.0,-150.0,975.0
2020-01-19 18:20:14.400000,-8.938,-1.875,321.625,0.987,-30.0,-151.0,975.0
2020-01-19 18:20:14.500000,-8.938,-1.875,321.625,0.987,-30.0,-151.0,975.0
2020-01-19 18:20:14.600000,-8.938,-1.875,321.625,0.987,-30.0,-149.0,976.0
2020-01-19 18:20:14.700000,-8.938,-1.875,321.625,0.987,-29.0,-149.0,976.0
2020-01-19 18:20:14.800000,-8.938,-1.875,321.625,0.987,-29.0,-149.0,976.0
2020-01-19 18:20:14.900000,-8.938,-1.875,321.625,0.986,-29.0,-150.0,975.0
2020-01-19 18:20:15,-8.938,-1.875,321.625,0.987,-30.0,-148.0,976.0
2020-01-19 18:20:15.100000,-8.938,-1.875,321.625,0.987,-30.0,-148.0,976.0
2020-01-19 18:20:15.200000,-8.938,-1.875,321.625,0.985,-29.0,-150.0,974.0
2020-01-19 18:20:15.300000,-8.938,-1.875,321.625,0.987,-29.0,-150.0,976.0
2020-01-19 18:20:15.400000,-8.938,-1.875,321.625,0.987,-29.0,-150.0,976.0
2020-01-19 18:20:15.500000,-8.938,-1.875,321.625,0.987,-29.0,-150.0,976.0
2020-01-19 18:20:15.600000,-8.938,-1.875,321.625,0.986,-29.0,-150.0,975.0
2020-01-19 18:20:15.700000,-8.938,-1.875,321.625,0.986,-29.0,-150.0,975.0
2020-01-19 18:20:15.800000,-8.938,-1.875,321.625,0.987,-29.0,-149.0,976.0
2020-01-19 18:20:15.900000,-8.938,-1.875,321.625,0.986,-30.0,-149.0,975.0
2020-01-19 18:20:16,-8.938,-1.875,321.625,0.986,-30.0,-149.0,975.0
2020-01-19 18:20:16.100000,-8.938,-1.875,321.625,0.986,-28.0,-151.0,974.0
2020-01-19 18:20:16.200000,-8.938,-1.875,321.625,0.986,-29.0,-149.0,975.0
2020-01-19 18:20:16.300000,-8.938,-1.875,321.625,0.986,-29.0,-149.0,975.0
2020-01-19 18:20:16.400000,-8.938,-1.875,321.625,0.987,-28.0,-149.0,976.0
2020-01-19 18:20:16.500000,-8.938,-1.875,321.625,0.986,-29.0,-150.0,975.0
2020-01-19 18:20:16.600000,-8.938,-1.875,321.625,0.986,-29.0,-150.0,975.0
2020-01-19 18:20:16.700000,-8.938,-1.875,321.625,0.986,-30.0,-149.0,975.0
2020-01-19 18:20:16.800000,-8.938,-1.875,321.625,0.986,-28.0,-150.0,975.0
2020-01-19 18:20:16.900000,-8.938,-1.875,321.625,0.986,-28.0,-150.0,975.0
2020-01-19 18:20:17,-8.938,-1.875,321.625,0.986,-30.0,-150.0,975.0
2020-01-19 18:20:17.100000,-8.938,-1.875,321.625,0.988,-29.0,-150.0,977.0
2020-01-19 18:20:17.200000,-8.938,-1.875,321.625,0.988,-29.0,-150.0,977.0
2020-01-19 18:20:17.300000,-8.938,-1.875,321.625,0.986,-29.0,-150.0,975.0
2020-01-19 18:20:17.400000,-8.938,-1.875,321.625,0.987,-29.0,-149.0,976.0
2020-01-19 18:20:17.500000,-8.938,-1.875,321.625,0.987,-29.0,-149.0,976.0
2020-01-19 18:20:17.600000,-8.938,-1.875,321.625,0.986,-29.0,-150.0,975.0
2020-01-19 18:20:17.700000,-8.938,-1.875,321.625,0.986,-29.0,-149.0,975.0
2020-01-19 18:20:17.800000,-8.938,-1.875,321.625,0.986,-29.0,-149.0,975.0
2020-01-19 18:20:17.900000,-8.938,-1.875,321.625,0.987,-29.0,-150.0,976.0
2020-01-19 18:20:18,-8.938,-1.875,321.625,0.986,-29.0,-149.0,975.0
2020-01-19 18:20:18.100000,-8.938,-1.875,321.625,0.986,-29.0,-149.0,975.0
2020-01-19 18:20:18.200000,-8.938,-1.875,321.625,0.986,-29.0,-149.0,975.0
2020-01-19 18:20:18.300000,-8.938,-1.875,321.625,0.987,-29.0,-150.0,976.0
2020-01-19 18:20:18.400000,-8.938,-1.875,321.625,0.987,-29.0,-150.0,976.0
2020-01-19 18:20:18.500000,-8.938,-1.875,321.625,0.986,-29.0,-150.0,975.0
2020-01-19 18:20:18.600000,-8.938,-1.875,321.625,0.987,-29.0,-150.0,976.0
2020-01-19 18:20:18.700000,-8.938,-1.875,321.625,0.987,-29.0,-150.0,976.0
2020-01-19 18:20:18.800000,-8.938,-1.875,321.625,0.987,-29.0,-149.0,976.0
2020-01-19 18:20:18.900000,-8.938,-1.875,321.625,0.986,-28.0,-150.0,975.0
2020-01-19 18:20:19,-8.938,-1.875,321.625,0.986,-28.0,-150.0,975.0
2020-01-19 18:20:19.100000,-8.938,-1.875,321.625,0.986,-29.0,-149.0,975.0
2020-01-19 18:20:19.200000,-8.938,-1.875,321.625,0.987,-29.0,-150.0,976.0
2020-01-19 18:20:19.300000,-8.938,-1.875,321.625,0.987,-29.0,-150.0,976.0
2020-01-19 18:20:19.400000,-8.938,-1.875,321.625,0.986,-29.0,-150.0,975.0
2020-01-19 18:20:19.500000,-8.938,-1.875,321.625,0.986,-29.0,-150.0,975.0
2020-01-19 18:20:19.600000,-8.938,-1.875,321.625,0.986,-29.0,-150.0,975.0
2020-01-19 18:20:19.700000,-8.938,-1.875,321.625,0.986,-29.0,-150.0,975.0
2020-01-19 18:20:19.800000,-8.938,-1.875,321.625,0.986,-29.0,-150.0,975.0
2020-01-19 18:20:19.900000,-8.938,-1.875,321.625,0.986,-29.0,-150.0,975.0
2020-01-19 18:20:20,-8.938,-1.875,321.625,0.987,-29.0,-150.0,976.0
2020-01-19 18:20:20.100000,-8.938,-1.875,321.625,0.987,-29.0,-150.0,976.0
2020-01-19 18:20:20.200000,-8.938,-1.875,321.625,0.987,-29.0,-150.0,976.0
2020-01-19 18:20:20.300000,-8.938,-1.875,321.625,0.987,-30.0,-149.0,976.0
2020-01-19 18:20:20.400000,-8.938,-1.875,321.625,0.986,-29.0,-150.0,975.0
2020-01-19 18:20:20.500000,-8.938,-1.875,321.625,0.986,-29.0,-150.0,975.0
2020-01-19 18:20:20.600000,-8.938,-1.875,321.625,0.986,-29.0,-149.0,975.0
2020-01-19 18:20:20.700000,-8.938,-1.875,321.625,0.988,-29.0,-150.0,977.0
2020-01-19 18:20:20.800000,-8.938,-1.875,321.625,0.988,-29.0,-150.0,977.0
2020-01-19 18:20:20.900000,-8.938,-1.875,321.625,0.987,-29.0,-150.0,976.0
2020-01-19 18:20:21,-8.938,-1.875,321.625,0.986,-29.0,-150.0,975.0
2020-01-19 18:20:21.100000,-8.938,-1.875,321.625,0.986,-29.0,-150.0,975.0
2020-01-19 18:20:21.200000,-8.938,-1.875,321.625,0.986,-29.0,-150.0,975.0
2020-01-19 18:20:21.300000,-8.938,-1.875,321.625,0.987,-29.0,-150.0,976.0
2020-01-19 18:20:21.400000,-8.938,-1.875,321.625,0.987,-29.0,-150.0,976.0
2020-01-19 18:20:21.500000,-8.938,-1.875,321.625,0.986,-29.0,-149.0,975.0
2020-01-19 18:20:21.600000,-8.938,-1.875,321.625,0.986,-29.0,-149.0,975.0
2020-01-19 18:20:21.700000,-8.938,-1.875,321.625,0.986,-29.0,-149.0,975.0
2020-01-19 18:20:21.800000,-8.938,-1.875,321.625,0.986,-29.0,-149.0,975.0
2020-01-19 18:20:21.900000,-8.938,-1.875,321.625,0.987,-29.0,-149.0,976.0
2020-01-19 18:20:22,-8.938,-1.875,321.625,0.987,-29.0,-149.0,976.0
2020-01-19 18:20:22.100000,-8.938,-1.875,321.625,0.986,-29.0,-150.0,975.0
2020-01-19 18:20:22.200000,-8.938,-1.875,321.625,0.986,-30.0,-150.0,975.0
2020-01-19 18:20:22.300000,-8.938,-1.875,321.625,0.986,-30.0,-150.0,975.0
2020-01-19 18:20:22.400000,-8.938,-1.875,321.625,0.987,-29.0,-150.0,976.0
2020-01-19 18:20:22.500000,-8.938,-1.875,321.625,0.986,-29.0,-150.0,975.0
2020-01-19 18:20:22.600000,-8.938,-1.875,321.625,0.986,-29.0,-150.0,975.0
2020-01-19 18:20:22.700000,-8.938,-1.875,321.625,0.986,-29.0,-149.0,975.0
2020-01-19 18:20:22.800000,-8.938,-1.875,321.625,0.987,-29.0,-150.0,976.0
2020-01-19 18:20:22.900000,-8.938,-1.875,321.625,0.987,-29.0,-150.0,976.0
2020-01-19 18:20:23,-8.938,-1.875,321.625,0.986,-28.0,-150.0,975.0
2020-01-19 18:20:23.100000,-8.938,-1.875,321.625,0.987,-29.0,-150.0,976.0
2020-01-19 18:20:23.200000,-8.938,-1.875,321.625,0.987,-29.0,-150.0,976.0
2020-01-19 18:20:23.300000,-8.938,-1.875,321.625,0.987,-29.0,-150.0,976.0
2020-01-19 18:20:23.400000,-8.938,-1.875,321.625,0.986,-29.0,-150.0,975.0
2020-01-19 18:20:23.500000,-8.938,-1.875,321.625,0.986,-29.0,-150.0,975.0
2020-01-19 18:20:23.600000,-8.938,-1.875,321.625,0.986,-29.0,-149.0,975.0
2020-01-19 18:20:23.700000,-8.938,-1.875,321.625,0.986,-29.0,-150.0,975.0
2020-01-19 18:20:23.800000,-8.938,-1.875,321.625,0.986,-29.0,-150.0,975.0
2020-01-19 18:20:23.900000,-8.938,-1.875,321.625,0.986,-29.0,-150.0,975.0
2020-01-19 18:20:24,-8.938,-1.875,321.625,0.987,-29.0,-150.0,976.0
2020-01-19 18:20:24.100000,-8.938,-1.875,321.625,0.987,-29.0,-150.0,976.0
2020-01-19 18:20:24.200000,-8.938,-1.875,321.625,0.987,-29.0,-150.0,976.0
2020-01-19 18:20:24.300000,-8.938,-1.875,321.625,0.986,-29.0,-150.0,975.0
2020-01-19 18:20:24.400000,-8.938,-1.875,321.625,0.986,-29.0,-150.0,975.0
2020-01-19 18:20:24.500000,-8.938,-1.875,321.625,0.987,-29.0,-149.0,976.0
2020-01-19 18:20:24.600000,-8.938,-1.875,321.625,0.987,-29.0,-150.0,976.0
2020-01-19 18:20:24.700000,-8.938,-1.875,321.625,0.987,-29.0,-150.0,976.0
2020-01-19 18:20:24.800000,-8.938,-1.875,321.625,0.986,-31.0,-148.0,975.0
2020-01-19 18:20:24.900000,-8.938,-1.875,321.625,0.987,-30.0,-150.0,976.0
2020-01-19 18:20:25,-8.938,-1.875,321.625,0.987,-30.0,-150.0,976.0
2020-01-19 18:20:25.100000,-8.938,-1.875,321.625,0.986,-31.0,-149.0,975.0
2020-01-19 18:20:25.200000,-8.938,-1.875,321.625,0.986,-30.0,-150.0,975.0
2020-01-19 18:20:25.300000,-8.938,-1.875,321.625,0.986,-30.0,-150.0,975.0
2020-01-19 18:20:25.400000,-8.938,-1.875,321.625,0.986,-31.0,-149.0,975.0
2020-01-19 18:20:25.500000,-8.938,-1.875,321.625,0.987,-31.0,-149.0,976.0
2020-01-19 18:20:25.600000,-8.938,-1.875,321.625,0.987,-31.0,-149.0,976.0
2020-01-19 18:20:25.700000,-8.938,-1.875,321.625,0.988,-29.0,-151.0,976.0
2020-01-19 18:20:25.800000,-8.938,-1.875,321.625,0.986,-30.0,-149.0,975.0
2020-01-19 18:20:25.900000,-8.938,-1.875,321.625,0.986,-30.0,-149.0,975.0
2020-01-19 18:20:26,-8.938,-1.875,321.625,0.986,-29.0,-149.0,975.0
2020-01-19 18:20:26.100000,-8.938,-1.875,321.625,0.987,-30.0,-150.0,976.0
2020-01-19 18:20:26.200000,-8.938,-1.875,321.625,0.987,-30.0,-150.0,976.0
2020-01-19 18:20:26.300000,-8.938,-1.875,321.625,0.987,-30.0,-149.0,976.0
2020-01-19 18:20:26.400000,-8.938,-1.875,321.625,0.987,-28.0,-149.0,976.0
2020-01-19 18:20:26.500000,-8.938,-1.875,321.625,0.987,-28.0,-149.0,976.0
2020-01-19 18:20:26.600000,-8.938,-1.875,321.625,0.987,-31.0,-150.0,976.0
2020-01-19 18:20:26.700000,-8.938,-1.875,321.625,0.987,-29.0,-150.0,976.0
2020-01-19 18:20:26.800000,-8.938,-1.875,321.625,0.987,-29.0,-150.0,976.0
2020-01-19 18:20:26.900000,-8.938,-1.875,321.625,0.988,-28.0,-149.0,977.0
2020-01-19 18:20:27,-8.938,-1.875,321.625,0.986,-30.0,-149.0,975.0
2020-01-19 18:20:27.100000,-8.938,-1.875,321.625,0.986,-30.0,-149.0,975.0
2020-01-19 18:20:27.200000,-8.938,-1.875,321.625,0.987,-29.0,-150.0,976.0
2020-01-19 18:20:27.300000,-8.938,-1.875,321.625,0.987,-29.0,-149.0,976.0
2020-01-19 18:20:27.400000,-8.938,-1.875,321.625,0.987,-29.0,-149.0,976.0
2020-01-19 18:20:27.500000,-8.938,-1.875,321.625,0.987,-32.0,-149.0,976.0
2020-01-19 18:20:27.600000,-8.938,-1.75,321.625,0.986,-32.0,-143.0,976.0
2020-01-19 18:20:27.700000,-8.938,-1.75,321.625,0.986,-32.0,-143.0,976.0
2020-01-19 18:20:27.800000,-8.938,-1.938,321.625,0.986,-27.0,-158.0,973.0
2020-01-19 18:20:27.900000,-8.938,-1.938,321.625,0.989,-30.0,-145.0,978.0
2020-01-19 18:20:28,-8.938,-1.938,321.625,0.989,-30.0,-145.0,978.0
2020-01-19 18:20:28.100000,-8.938,-1.938,321.687,0.987,-31.0,-154.0,975.0
2020-01-19 18:20:28.200000,-8.938,-1.938,321.687,0.987,-29.0,-150.0,976.0
2020-01-19 18:20:28.300000,-8.938,-1.938,321.687,0.987,-29.0,-150.0,976.0
2020-01-19 18:20:28.400000,-8.938,-1.875,321.687,0.988,-29.0,-147.0,977.0
2020-01-19 18:20:28.500000,-8.938,-1.875,321.687,0.987,-30.0,-152.0,975.0
2020-01-19 18:20:28.600000,-8.938,-1.875,321.687,0.987,-30.0,-152.0,975.0
2020-01-19 18:20:28.700000,-8.938,-1.875,321.812,0.987,-30.0,-148.0,976.0
2020-01-19 18:20:28.800000,-8.938,-1.875,321.625,0.986,-29.0,-149.0,975.0
2020-01-19 18:20:28.900000,-8.938,-1.875,321.625,0.986,-29.0,-149.0,975.0
2020-01-19 18:20:29,-8.938,-1.875,321.625,0.987,-31.0,-149.0,976.0
2020-01-19 18:20:29.100000,-8.938,-1.875,321.625,0.988,-28.0,-152.0,976.0
2020-01-19 18:20:29.200000,-8.938,-1.875,321.625,0.988,-28.0,-152.0,976.0
2020-01-19 18:20:29.300000,-8.938,-1.875,321.625,0.986,-30.0,-150.0,975.0
2020-01-19 18:20:29.400000,-8.938,-1.875,321.625,0.988,-30.0,-147.0,977.0
2020-01-19 18:20:29.500000,-8.938,-1.875,321.625,0.988,-30.0,-147.0,977.0
2020-01-19 18:20:29.600000,-8.938,-1.875,321.625,0.986,-30.0,-151.0,974.0
2020-01-19 18:20:29.700000,-8.938,-1.875,321.625,0.987,-30.0,-150.0,976.0
2020-01-19 18:20:29.800000,-8.938,-1.875,321.625,0.987,-30.0,-150.0,976.0
2020-01-19 18:20:29.900000,-8.938,-1.875,321.625,0.987,-29.0,-148.0,976.0
2020-01-19 18:20:30,-8.938,-1.875,321.625,0.986,-30.0,-150.0,975.0
2020-01-19 18:20:30.100000,-8.938,-1.875,321.625,0.986,-30.0,-150.0,975.0
2020-01-19 18:20:30.200000,-8.938,-1.875,321.625,0.987,-29.0,-151.0,975.0
2020-01-19 18:20:30.300000,-8.938,-1.875,321.625,0.986,-29.0,-148.0,975.0
2020-01-19 18:20:30.400000,-8.938,-1.875,321.625,0.986,-29.0,-148.0,975.0
2020-01-19 18:20:30.500000,-8.938,-1.875,321.625,0.986,-31.0,-149.0,975.0
2020-01-19 18:20:30.600000,-8.938,-1.875,321.625,0.986,-30.0,-150.0,975.0
2020-01-19 18:20:30.700000,-8.938,-1.875,321.625,0.986,-30.0,-150.0,975.0
