starttime,tilt1,tilt2,compass,accelerometer,ax,ay,az
2020-01-21 16:37:44.100000,-8.25,22.437,265.125,0.98,387.0,-122.0,893.0
2020-01-21 16:37:44.200000,-8.25,22.437,265.125,0.98,387.0,-122.0,893.0
2020-01-21 16:37:44.300000,-8.25,22.437,265.125,0.982,387.0,-124.0,894.0
2020-01-21 16:37:44.400000,-8.25,22.437,265.125,0.98,387.0,-123.0,892.0
2020-01-21 16:37:44.500000,-8.25,22.437,265.125,0.98,387.0,-123.0,892.0
2020-01-21 16:37:44.600000,-8.25,22.437,265.125,0.98,388.0,-123.0,892.0
2020-01-21 16:37:44.700000,-8.25,22.437,265.125,0.98,389.0,-122.0,892.0
2020-01-21 16:37:44.800000,-8.25,22.437,265.125,0.98,389.0,-122.0,892.0
2020-01-21 16:37:44.900000,-8.25,22.437,265.125,0.98,388.0,-123.0,892.0
2020-01-21 16:37:45,-8.25,22.437,265.125,0.981,388.0,-122.0,893.0
2020-01-21 16:37:45.100000,-8.25,22.437,265.125,0.981,388.0,-122.0,893.0
2020-01-21 16:37:45.200000,-8.25,22.437,265.125,0.98,387.0,-123.0,892.0
2020-01-21 16:37:45.300000,-8.25,22.437,265.125,0.98,388.0,-123.0,892.0
2020-01-21 16:37:45.400000,-8.25,22.437,265.125,0.98,388.0,-123.0,892.0
2020-01-21 16:37:45.500000,-8.25,22.437,265.125,0.981,388.0,-123.0,893.0
2020-01-21 16:37:45.600000,-8.25,22.437,265.125,0.98,388.0,-122.0,892.0
2020-01-21 16:37:45.700000,-8.25,22.437,265.125,0.98,388.0,-122.0,892.0
2020-01-21 16:37:45.800000,-8.25,22.437,265.125,0.98,388.0,-123.0,892.0
2020-01-21 16:37:45.900000,-8.25,22.437,265.125,0.981,388.0,-123.0,893.0
2020-01-21 16:37:46,-8.25,22.437,265.125,0.981,388.0,-123.0,893.0
2020-01-21 16:37:46.100000,-8.25,22.437,265.125,0.979,388.0,-123.0,891.0
2020-01-21 16:37:46.200000,-8.25,22.437,265.125,0.98,389.0,-122.0,892.0
2020-01-21 16:37:46.300000,-8.25,22.437,265.125,0.98,389.0,-122.0,892.0
2020-01-21 16:37:46.400000,-8.25,22.437,265.125,0.981,390.0,-121.0,892.0
2020-01-21 16:37:46.500000,-8.188,22.5,265.125,0.981,391.0,-121.0,892.0
2020-01-21 16:37:46.600000,-8.188,22.5,265.125,0.981,391.0,-121.0,892.0
2020-01-21 16:37:46.700000,-8.188,22.437,265.125,0.979,390.0,-120.0,891.0
2020-01-21 16:37:46.800000,-8.188,22.562,265.125,0.981,389.0,-121.0,893.0
2020-01-21 16:37:46.900000,-8.188,22.562,265.125,0.981,389.0,-121.0,893.0
2020-01-21 16:37:47,-8.188,22.375,265.125,0.98,389.0,-120.0,892.0
2020-01-21 16:37:47.100000,-8.188,22.375,265.125,0.98,389.0,-121.0,892.0
2020-01-21 16:37:47.200000,-8.188,22.375,265.125,0.98,389.0,-121.0,892.0
2020-01-21 16:37:47.300000,-8.188,22.375,265.125,0.98,389.0,-121.0,892.0
2020-01-21 16:37:47.400000,-8.188,22.562,265.125,0.98,390.0,-120.0,892.0
2020-01-21 16:37:47.500000,-8.188,22.562,265.125,0.98,390.0,-120.0,892.0
2020-01-21 16:37:47.600000,-8.188,22.375,265.125,0.98,390.0,-120.0,892.0
2020-01-21 16:37:47.700000,-8.188,22.375,265.125,0.98,389.0,-121.0,892.0
2020-01-21 16:37:47.800000,-8.188,22.375,265.125,0.98,389.0,-121.0,892.0
2020-01-21 16:37:47.900000,-8.188,22.375,265.125,0.981,390.0,-121.0,892.0
2020-01-21 16:37:48,-8.188,22.375,265.125,0.98,389.0,-121.0,892.0
2020-01-21 16:37:48.100000,-8.188,22.375,265.125,0.98,389.0,-121.0,892.0
2020-01-21 16:37:48.200000,-8.188,22.375,265.125,0.981,390.0,-121.0,892.0
2020-01-21 16:37:48.300000,-8.188,22.375,265.125,0.979,389.0,-121.0,891.0
2020-01-21 16:37:48.400000,-8.188,22.375,265.125,0.979,389.0,-121.0,891.0
2020-01-21 16:37:48.500000,-8.188,22.375,265.125,0.98,389.0,-121.0,892.0
2020-01-21 16:37:48.600000,-8.188,22.375,265.125,0.98,389.0,-121.0,892.0
2020-01-21 16:37:48.700000,-8.188,22.375,265.125,0.98,389.0,-121.0,892.0
2020-01-21 16:37:48.800000,-8.188,22.437,265.125,0.98,389.0,-120.0,892.0
2020-01-21 16:37:48.900000,-8.188,22.437,265.125,0.98,388.0,-121.0,892.0
2020-01-21 16:37:49,-8.188,22.437,265.125,0.98,388.0,-121.0,892.0
2020-01-21 16:37:49.100000,-8.188,22.437,265.125,0.979,387.0,-121.0,892.0
2020-01-21 16:37:49.200000,-8.188,22.437,265.125,0.981,388.0,-121.0,893.0
2020-01-21 16:37:49.300000,-8.188,22.437,265.125,0.981,388.0,-121.0,893.0
2020-01-21 16:37:49.400000,-8.188,22.437,265.125,0.98,386.0,-121.0,893.0
2020-01-21 16:37:49.500000,-8.188,22.562,265.125,0.981,388.0,-120.0,893.0
2020-01-21 16:37:49.600000,-8.188,22.562,265.125,0.981,388.0,-120.0,893.0
2020-01-21 16:37:49.700000,-8.188,22.375,265.125,0.981,387.0,-121.0,894.0
2020-01-21 16:37:49.800000,-8.188,22.375,265.125,0.98,387.0,-122.0,893.0
2020-01-21 16:37:49.900000,-8.188,22.375,265.125,0.98,387.0,-122.0,893.0
2020-01-21 16:37:50,-8.188,22.375,265.125,0.981,388.0,-120.0,893.0
2020-01-21 16:37:50.100000,-8.188,22.375,265.125,0.98,388.0,-121.0,892.0
2020-01-21 16:37:50.200000,-8.188,22.375,265.125,0.98,388.0,-121.0,892.0
2020-01-21 16:37:50.300000,-8.188,22.375,265.125,0.981,389.0,-122.0,893.0
2020-01-21 16:37:50.400000,-8.188,22.375,265.125,0.98,387.0,-120.0,893.0
2020-01-21 16:37:50.500000,-8.188,22.375,265.125,0.98,387.0,-120.0,893.0
2020-01-21 16:37:50.600000,-8.188,22.375,265.125,0.979,385.0,-119.0,893.0
2020-01-21 16:37:50.700000,-8.188,22.375,265.125,0.98,387.0,-119.0,893.0
2020-01-21 16:37:50.800000,-8.188,22.375,265.125,0.98,387.0,-119.0,893.0
2020-01-21 16:37:50.900000,-8.188,22.5,265.125,0.981,390.0,-114.0,893.0
2020-01-21 16:37:51,-7.938,22.625,265.125,0.98,386.0,-117.0,894.0
2020-01-21 16:37:51.100000,-7.938,22.625,265.125,0.98,386.0,-117.0,894.0
2020-01-21 16:37:51.200000,-8.125,22.125,265.25,0.979,382.0,-117.0,894.0
2020-01-21 16:37:51.300000,-8.063,22.562,265.062,0.982,388.0,-116.0,895.0
2020-01-21 16:37:51.400000,-8.063,22.562,265.062,0.982,388.0,-116.0,895.0
2020-01-21 16:37:51.500000,-8.063,22.437,265.062,0.979,382.0,-118.0,894.0
2020-01-21 16:37:51.600000,-7.938,22.312,265.125,0.984,383.0,-117.0,899.0
2020-01-21 16:37:51.700000,-7.938,22.312,265.125,0.984,383.0,-117.0,899.0
2020-01-21 16:37:51.800000,-8.0,21.812,265.312,0.982,365.0,-126.0,903.0
2020-01-21 16:37:51.900000,-8.313,21.5,265.312,0.976,369.0,-132.0,894.0
2020-01-21 16:37:52,-8.688,21.562,265.062,0.981,376.0,-130.0,897.0
2020-01-21 16:37:52.100000,-8.688,21.562,265.062,0.981,376.0,-130.0,897.0
2020-01-21 16:37:52.200000,-8.688,22.312,264.75,0.982,381.0,-128.0,896.0
2020-01-21 16:37:52.300000,-8.625,22.125,264.812,0.98,378.0,-129.0,896.0
2020-01-21 16:37:52.400000,-8.625,22.125,264.812,0.98,378.0,-129.0,896.0
2020-01-21 16:37:52.500000,-8.625,22.187,264.812,0.98,380.0,-129.0,895.0
2020-01-21 16:37:52.600000,-8.625,22.25,264.812,0.983,381.0,-129.0,897.0
2020-01-21 16:37:52.700000,-8.625,22.25,264.812,0.983,381.0,-129.0,897.0
2020-01-21 16:37:52.800000,-8.563,22.437,264.812,0.981,379.0,-127.0,896.0
2020-01-21 16:37:52.900000,-8.563,22.187,264.812,0.98,376.0,-130.0,896.0
2020-01-21 16:37:53,-8.563,22.187,264.812,0.98,376.0,-130.0,896.0
2020-01-21 16:37:53.100000,-8.563,22.187,264.812,0.98,380.0,-127.0,895.0
2020-01-21 16:37:53.200000,-8.563,22.375,264.937,0.98,381.0,-126.0,895.0
2020-01-21 16:37:53.300000,-8.563,22.375,264.937,0.98,381.0,-126.0,895.0
2020-01-21 16:37:53.400000,-8.563,22.437,264.75,0.981,385.0,-124.0,894.0
2020-01-21 16:37:53.500000,-8.5,22.875,264.875,0.981,386.0,-124.0,894.0
2020-01-21 16:37:53.600000,-8.5,22.875,264.875,0.981,386.0,-124.0,894.0
2020-01-21 16:37:53.700000,-8.5,22.5,264.75,0.972,380.0,-125.0,886.0
2020-01-21 16:37:53.800000,-8.25,23.562,264.5,0.99,416.0,-109.0,892.0
2020-01-21 16:37:53.900000,-8.25,23.562,264.5,0.99,416.0,-109.0,892.0
2020-01-21 16:37:54,-7.938,24.125,264.562,0.977,400.0,-116.0,884.0
2020-01-21 16:37:54.100000,-8.188,23.875,264.562,0.98,401.0,-117.0,887.0
2020-01-21 16:37:54.200000,-8.188,23.875,264.562,0.98,401.0,-117.0,887.0
2020-01-21 16:37:54.300000,-8.188,23.625,264.75,0.98,400.0,-117.0,887.0
2020-01-21 16:37:54.400000,-8.188,23.687,264.562,0.98,401.0,-118.0,887.0
2020-01-21 16:37:54.500000,-8.188,23.687,264.562,0.98,401.0,-118.0,887.0
2020-01-21 16:37:54.600000,-8.063,23.812,264.625,0.979,399.0,-120.0,887.0
2020-01-21 16:37:54.700000,-8.25,23.625,264.625,0.98,398.0,-119.0,888.0
2020-01-21 16:37:54.800000,-8.25,23.625,264.625,0.98,398.0,-119.0,888.0
2020-01-21 16:37:54.900000,-8.25,23.625,264.625,0.98,397.0,-120.0,888.0
2020-01-21 16:37:55,-8.25,23.625,264.625,0.979,396.0,-119.0,888.0
2020-01-21 16:37:55.100000,-8.25,23.625,264.625,0.979,396.0,-119.0,888.0
2020-01-21 16:37:55.200000,-8.25,23.75,264.75,0.979,397.0,-119.0,888.0
2020-01-21 16:37:55.300000,-8.25,23.562,264.75,0.98,394.0,-121.0,890.0
2020-01-21 16:37:55.400000,-8.25,23.562,264.75,0.98,394.0,-121.0,890.0
2020-01-21 16:37:55.500000,-8.125,23.625,264.562,0.98,396.0,-120.0,889.0
2020-01-21 16:37:55.600000,-8.313,23.75,264.687,0.979,396.0,-119.0,888.0
2020-01-21 16:37:55.700000,-8.313,23.75,264.687,0.979,396.0,-119.0,888.0
2020-01-21 16:37:55.800000,-8.313,23.687,264.5,0.979,397.0,-119.0,888.0
2020-01-21 16:37:55.900000,-8.313,23.812,264.5,0.98,396.0,-121.0,889.0
2020-01-21 16:37:56,-8.313,23.812,264.5,0.98,396.0,-121.0,889.0
2020-01-21 16:37:56.100000,-8.188,23.625,264.5,0.98,395.0,-121.0,889.0
2020-01-21 16:37:56.200000,-8.375,23.812,264.5,0.981,396.0,-122.0,890.0
2020-01-21 16:37:56.300000,-8.375,23.812,264.5,0.981,396.0,-122.0,890.0
2020-01-21 16:37:56.400000,-8.188,23.562,264.5,0.978,393.0,-121.0,888.0
2020-01-21 16:37:56.500000,-8.375,23.687,264.5,0.981,396.0,-121.0,890.0
2020-01-21 16:37:56.600000,-8.375,23.687,264.5,0.981,396.0,-121.0,890.0
2020-01-21 16:37:56.700000,-8.375,23.75,264.5,0.979,396.0,-121.0,888.0
2020-01-21 16:37:56.800000,-8.375,23.75,264.5,0.979,396.0,-121.0,888.0
2020-01-21 16:37:56.900000,-8.375,23.75,264.5,0.979,396.0,-121.0,888.0
2020-01-21 16:37:57,-8.375,23.75,264.5,0.981,397.0,-121.0,889.0
2020-01-21 16:37:57.100000,-8.375,23.75,264.5,0.98,396.0,-122.0,889.0
2020-01-21 16:37:57.200000,-8.375,23.75,264.5,0.98,396.0,-122.0,889.0
2020-01-21 16:37:57.300000,-8.375,23.75,264.5,0.979,395.0,-121.0,888.0
2020-01-21 16:37:57.400000,-8.375,23.75,264.5,0.98,396.0,-121.0,889.0
2020-01-21 16:37:57.500000,-8.375,23.75,264.5,0.98,396.0,-121.0,889.0
2020-01-21 16:37:57.600000,-8.375,23.75,264.5,0.98,395.0,-121.0,889.0
2020-01-21 16:37:57.700000,-8.375,23.75,264.5,0.98,395.0,-121.0,889.0
2020-01-21 16:37:57.800000,-8.375,23.75,264.5,0.98,395.0,-121.0,889.0
2020-01-21 16:37:57.900000,-8.375,23.75,264.5,0.98,393.0,-122.0,890.0
2020-01-21 16:37:58,-8.375,23.75,264.5,0.981,395.0,-122.0,890.0
2020-01-21 16:37:58.100000,-8.375,23.75,264.5,0.981,395.0,-122.0,890.0
2020-01-21 16:37:58.200000,-8.375,23.75,264.5,0.98,394.0,-122.0,889.0
2020-01-21 16:37:58.300000,-8.375,23.812,264.625,0.98,395.0,-122.0,889.0
2020-01-21 16:37:58.400000,-8.375,23.812,264.625,0.98,395.0,-122.0,889.0
2020-01-21 16:37:58.500000,-8.375,23.812,264.437,0.98,395.0,-121.0,889.0
2020-01-21 16:37:58.600000,-8.375,23.812,264.437,0.981,397.0,-121.0,889.0
2020-01-21 16:37:58.700000,-8.375,23.812,264.437,0.981,397.0,-121.0,889.0
2020-01-21 16:37:58.800000,-8.375,24.062,264.437,0.979,396.0,-121.0,888.0
2020-01-21 16:37:58.900000,-8.375,23.875,264.437,0.98,397.0,-121.0,888.0
2020-01-21 16:37:59,-8.375,23.875,264.437,0.98,397.0,-121.0,888.0
2020-01-21 16:37:59.100000,-8.375,23.937,264.437,0.98,397.0,-121.0,888.0
2020-01-21 16:37:59.200000,-8.375,23.937,264.437,0.98,398.0,-121.0,888.0
2020-01-21 16:37:59.300000,-8.375,23.937,264.437,0.98,398.0,-121.0,888.0
2020-01-21 16:37:59.400000,-8.375,24.0,264.437,0.981,399.0,-121.0,888.0
2020-01-21 16:37:59.500000,-8.375,24.0,264.437,0.98,398.0,-121.0,888.0
2020-01-21 16:37:59.600000,-8.375,24.0,264.437,0.98,398.0,-121.0,888.0
2020-01-21 16:37:59.700000,-8.375,24.062,264.437,0.98,400.0,-121.0,887.0
2020-01-21 16:37:59.800000,-8.375,24.125,264.437,0.98,400.0,-119.0,887.0
2020-01-21 16:37:59.900000,-8.375,24.125,264.437,0.98,400.0,-119.0,887.0
2020-01-21 16:38:00,-8.375,24.125,264.437,0.98,400.0,-121.0,887.0
2020-01-21 16:38:00.100000,-8.375,24.125,264.437,0.98,398.0,-121.0,888.0
2020-01-21 16:38:00.200000,-8.375,24.125,264.437,0.98,398.0,-121.0,888.0
2020-01-21 16:38:00.300000,-8.375,24.25,264.437,0.979,398.0,-121.0,887.0
2020-01-21 16:38:00.400000,-8.375,24.125,264.437,0.98,399.0,-120.0,888.0
2020-01-21 16:38:00.500000,-8.375,24.25,264.437,0.98,397.0,-121.0,888.0
2020-01-21 16:38:00.600000,-8.375,24.25,264.437,0.98,397.0,-121.0,888.0
2020-01-21 16:38:00.700000,-8.375,24.062,264.437,0.98,397.0,-122.0,888.0
2020-01-21 16:38:00.800000,-8.375,24.062,264.437,0.979,397.0,-121.0,887.0
2020-01-21 16:38:00.900000,-8.375,24.062,264.437,0.979,397.0,-121.0,887.0
2020-01-21 16:38:01,-8.375,24.062,264.437,0.979,397.0,-121.0,887.0
2020-01-21 16:38:01.100000,-8.375,24.25,264.437,0.98,397.0,-121.0,888.0
2020-01-21 16:38:01.200000,-8.375,24.25,264.437,0.98,397.0,-121.0,888.0
2020-01-21 16:38:01.300000,-8.375,24.0,264.437,0.981,397.0,-122.0,889.0
2020-01-21 16:38:01.400000,-8.375,24.187,264.437,0.979,395.0,-123.0,888.0
2020-01-21 16:38:01.500000,-8.375,24.187,264.437,0.979,395.0,-123.0,888.0
2020-01-21 16:38:01.600000,-8.375,24.0,264.562,0.981,398.0,-120.0,889.0
2020-01-21 16:38:01.700000,-8.313,24.062,264.375,0.98,395.0,-122.0,889.0
2020-01-21 16:38:01.800000,-8.313,24.062,264.375,0.98,395.0,-122.0,889.0
2020-01-21 16:38:01.900000,-8.188,24.062,264.375,0.981,397.0,-121.0,889.0
2020-01-21 16:38:02,-8.313,24.125,264.375,0.98,397.0,-121.0,888.0
2020-01-21 16:38:02.100000,-8.313,24.125,264.375,0.98,397.0,-121.0,888.0
2020-01-21 16:38:02.200000,-8.313,24.187,264.375,0.979,395.0,-120.0,888.0
2020-01-21 16:38:02.300000,-8.313,24.25,264.375,0.979,395.0,-122.0,888.0
2020-01-21 16:38:02.400000,-8.313,24.25,264.375,0.979,395.0,-122.0,888.0
2020-01-21 16:38:02.500000,-8.313,24.312,264.375,0.981,399.0,-121.0,888.0
2020-01-21 16:38:02.600000,-8.188,24.375,264.5,0.981,399.0,-121.0,888.0
2020-01-21 16:38:02.700000,-8.188,24.375,264.5,0.981,399.0,-121.0,888.0
2020-01-21 16:38:02.800000,-8.375,24.437,264.312,0.98,401.0,-120.0,887.0
2020-01-21 16:38:02.900000,-8.375,24.5,264.312,0.98,400.0,-121.0,887.0
2020-01-21 16:38:03,-8.375,24.5,264.312,0.98,400.0,-121.0,887.0
2020-01-21 16:38:03.100000,-8.375,24.562,264.312,0.98,401.0,-121.0,887.0
2020-01-21 16:38:03.200000,-8.375,24.562,264.312,0.979,399.0,-121.0,886.0
2020-01-21 16:38:03.300000,-8.375,24.562,264.312,0.979,399.0,-121.0,886.0
2020-01-21 16:38:03.400000,-8.375,24.687,264.312,0.98,399.0,-121.0,887.0
2020-01-21 16:38:03.500000,-8.375,24.5,264.312,0.981,399.0,-121.0,888.0
2020-01-21 16:38:03.600000,-8.375,24.5,264.312,0.981,399.0,-121.0,888.0
2020-01-21 16:38:03.700000,-8.375,24.5,264.312,0.98,399.0,-120.0,888.0
2020-01-21 16:38:03.800000,-8.375,24.5,264.312,0.979,397.0,-121.0,887.0
2020-01-21 16:38:03.900000,-8.375,24.5,264.312,0.979,397.0,-121.0,887.0
2020-01-21 16:38:04,-8.375,24.5,264.312,0.981,399.0,-122.0,888.0
2020-01-21 16:38:04.100000,-8.375,24.5,264.312,0.979,397.0,-122.0,887.0
2020-01-21 16:38:04.200000,-8.375,24.5,264.312,0.979,397.0,-122.0,887.0
2020-01-21 16:38:04.300000,-8.375,24.5,264.312,0.979,398.0,-121.0,887.0
2020-01-21 16:38:04.400000,-8.375,24.562,264.312,0.98,398.0,-122.0,888.0
2020-01-21 16:38:04.500000,-8.375,24.562,264.312,0.98,398.0,-122.0,888.0
2020-01-21 16:38:04.600000,-8.375,24.562,264.312,0.98,398.0,-120.0,888.0
2020-01-21 16:38:04.700000,-8.375,24.562,264.312,0.979,398.0,-121.0,887.0
2020-01-21 16:38:04.800000,-8.375,24.562,264.312,0.979,398.0,-121.0,887.0
2020-01-21 16:38:04.900000,-8.375,24.562,264.312,0.98,398.0,-122.0,888.0
2020-01-21 16:38:05,-8.375,24.625,264.312,0.98,399.0,-121.0,887.0
2020-01-21 16:38:05.100000,-8.375,24.625,264.312,0.98,399.0,-121.0,887.0
2020-01-21 16:38:05.200000,-8.375,24.687,264.312,0.981,400.0,-120.0,888.0
2020-01-21 16:38:05.300000,-8.375,24.75,264.312,0.979,400.0,-121.0,886.0
2020-01-21 16:38:05.400000,-8.375,24.75,264.312,0.979,400.0,-121.0,886.0
2020-01-21 16:38:05.500000,-8.375,24.75,264.25,0.979,400.0,-120.0,886.0
2020-01-21 16:38:05.600000,-8.375,24.812,264.25,0.979,400.0,-120.0,886.0
2020-01-21 16:38:05.700000,-8.375,24.812,264.25,0.979,400.0,-120.0,886.0
2020-01-21 16:38:05.800000,-8.375,24.937,264.25,0.981,401.0,-122.0,887.0
2020-01-21 16:38:05.900000,-8.375,24.687,264.312,0.98,399.0,-121.0,887.0
2020-01-21 16:38:06,-8.375,24.687,264.312,0.98,399.0,-121.0,887.0
2020-01-21 16:38:06.100000,-8.375,24.812,264.312,0.98,398.0,-122.0,888.0
2020-01-21 16:38:06.200000,-8.375,24.687,264.312,0.979,394.0,-122.0,888.0
2020-01-21 16:38:06.300000,-8.375,24.687,264.312,0.979,394.0,-122.0,888.0
2020-01-21 16:38:06.400000,-8.188,24.562,264.312,0.982,395.0,-124.0,891.0
2020-01-21 16:38:06.500000,-8.188,24.5,264.312,0.979,393.0,-122.0,889.0
2020-01-21 16:38:06.600000,-8.188,24.5,264.312,0.979,393.0,-122.0,889.0
2020-01-21 16:38:06.700000,-8.25,24.437,264.375,0.98,386.0,-126.0,892.0
2020-01-21 16:38:06.800000,-8.5,24.0,264.437,0.981,385.0,-127.0,894.0
2020-01-21 16:38:06.900000,-8.5,24.0,264.437,0.981,385.0,-127.0,894.0
2020-01-21 16:38:07,-8.563,23.75,264.562,0.977,381.0,-132.0,890.0
2020-01-21 16:38:07.100000,-8.563,23.875,264.5,0.981,388.0,-129.0,892.0
2020-01-21 16:38:07.200000,-8.563,23.875,264.5,0.981,388.0,-129.0,892.0
2020-01-21 16:38:07.300000,-8.563,24.0,264.312,0.981,391.0,-127.0,891.0
2020-01-21 16:38:07.400000,-8.563,24.25,264.312,0.979,391.0,-127.0,889.0
2020-01-21 16:38:07.500000,-8.563,24.25,264.312,0.979,391.0,-127.0,889.0
2020-01-21 16:38:07.600000,-8.5,24.062,264.312,0.98,391.0,-128.0,890.0
2020-01-21 16:38:07.700000,-8.5,24.187,264.312,0.981,394.0,-126.0,890.0
2020-01-21 16:38:07.800000,-8.5,24.187,264.312,0.981,394.0,-126.0,890.0
2020-01-21 16:38:07.900000,-8.5,24.187,264.312,0.982,396.0,-125.0,890.0
2020-01-21 16:38:08,-8.5,24.312,264.312,0.979,392.0,-127.0,889.0
2020-01-21 16:38:08.100000,-8.5,24.312,264.312,0.979,392.0,-127.0,889.0
2020-01-21 16:38:08.200000,-8.5,24.125,264.312,0.981,393.0,-126.0,891.0
2020-01-21 16:38:08.300000,-8.5,24.312,264.312,0.979,392.0,-126.0,889.0
2020-01-21 16:38:08.400000,-8.5,24.312,264.312,0.979,392.0,-126.0,889.0
2020-01-21 16:38:08.500000,-8.5,24.125,264.312,0.98,392.0,-126.0,890.0
2020-01-21 16:38:08.600000,-8.5,24.125,264.312,0.98,392.0,-126.0,890.0
2020-01-21 16:38:08.700000,-8.5,24.125,264.312,0.98,392.0,-126.0,890.0
2020-01-21 16:38:08.800000,-8.5,24.125,264.312,0.98,392.0,-126.0,890.0
2020-01-21 16:38:08.900000,-8.5,24.125,264.312,0.979,391.0,-126.0,889.0
2020-01-21 16:38:09,-8.5,24.125,264.312,0.979,391.0,-126.0,889.0
2020-01-21 16:38:09.100000,-8.5,24.125,264.312,0.98,392.0,-126.0,890.0
2020-01-21 16:38:09.200000,-8.5,24.125,264.312,0.98,390.0,-125.0,891.0
2020-01-21 16:38:09.300000,-8.5,24.125,264.312,0.98,390.0,-125.0,891.0
2020-01-21 16:38:09.400000,-8.5,24.125,264.312,0.981,391.0,-127.0,891.0
2020-01-21 16:38:09.500000,-8.5,24.187,264.312,0.98,390.0,-126.0,891.0
2020-01-21 16:38:09.600000,-8.5,24.187,264.312,0.98,390.0,-126.0,891.0
2020-01-21 16:38:09.700000,-8.5,24.187,264.312,0.979,390.0,-126.0,890.0
2020-01-21 16:38:09.800000,-8.5,24.187,264.312,0.98,390.0,-126.0,891.0
2020-01-21 16:38:09.900000,-8.5,24.187,264.312,0.98,390.0,-126.0,891.0
2020-01-21 16:38:10,-8.5,24.187,264.312,0.98,390.0,-126.0,891.0
2020-01-21 16:38:10.100000,-8.5,24.187,264.312,0.98,390.0,-126.0,891.0
2020-01-21 16:38:10.200000,-8.5,24.187,264.312,0.98,390.0,-126.0,891.0
2020-01-21 16:38:10.300000,-8.5,24.187,264.312,0.98,390.0,-127.0,891.0
2020-01-21 16:38:10.400000,-8.5,24.187,264.312,0.98,390.0,-126.0,891.0
2020-01-21 16:38:10.500000,-8.5,24.187,264.312,0.98,390.0,-126.0,891.0
2020-01-21 16:38:10.600000,-8.5,24.312,264.312,0.982,391.0,-126.0,892.0
2020-01-21 16:38:10.700000,-8.5,24.125,264.312,0.98,389.0,-126.0,891.0
2020-01-21 16:38:10.800000,-8.5,24.125,264.312,0.98,389.0,-126.0,891.0
2020-01-21 16:38:10.900000,-8.5,24.125,264.312,0.98,389.0,-126.0,891.0
2020-01-21 16:38:11,-8.5,24.125,264.312,0.981,390.0,-126.0,892.0
2020-01-21 16:38:11.100000,-8.5,24.125,264.312,0.981,390.0,-126.0,892.0
2020-01-21 16:38:11.200000,-8.5,24.125,264.312,0.98,390.0,-126.0,891.0
2020-01-21 16:38:11.300000,-8.5,24.125,264.312,0.981,389.0,-126.0,892.0
2020-01-21 16:38:11.400000,-8.5,24.125,264.312,0.981,389.0,-126.0,892.0
2020-01-21 16:38:11.500000,-8.5,24.125,264.312,0.98,389.0,-126.0,891.0
2020-01-21 16:38:11.600000,-8.5,24.125,264.312,0.981,389.0,-126.0,892.0
2020-01-21 16:38:11.700000,-8.5,24.125,264.312,0.981,389.0,-126.0,892.0
2020-01-21 16:38:11.800000,-8.5,24.125,264.312,0.98,389.0,-127.0,891.0
2020-01-21 16:38:11.900000,-8.5,24.125,264.312,0.981,389.0,-126.0,892.0
2020-01-21 16:38:12,-8.5,24.125,264.312,0.981,389.0,-126.0,892.0
2020-01-21 16:38:12.100000,-8.5,24.125,264.312,0.979,388.0,-126.0,891.0
2020-01-21 16:38:12.200000,-8.5,24.125,264.312,0.981,389.0,-126.0,892.0
2020-01-21 16:38:12.300000,-8.5,24.125,264.312,0.981,389.0,-126.0,892.0
2020-01-21 16:38:12.400000,-8.5,24.375,264.312,0.98,390.0,-126.0,891.0
2020-01-21 16:38:12.500000,-8.5,24.187,264.312,0.98,389.0,-126.0,891.0
2020-01-21 16:38:12.600000,-8.5,24.187,264.312,0.98,389.0,-126.0,891.0
2020-01-21 16:38:12.700000,-8.5,24.25,264.312,0.98,389.0,-126.0,891.0
2020-01-21 16:38:12.800000,-8.5,24.25,264.312,0.98,390.0,-126.0,891.0
2020-01-21 16:38:12.900000,-8.5,24.25,264.312,0.98,390.0,-126.0,891.0
2020-01-21 16:38:13,-8.5,24.25,264.312,0.98,389.0,-127.0,891.0
2020-01-21 16:38:13.100000,-8.5,24.25,264.312,0.98,391.0,-126.0,890.0
2020-01-21 16:38:13.200000,-8.5,24.25,264.312,0.98,391.0,-126.0,890.0
2020-01-21 16:38:13.300000,-8.5,24.375,264.437,0.98,393.0,-125.0,890.0
2020-01-21 16:38:13.400000,-8.375,24.625,264.25,0.981,394.0,-124.0,890.0
2020-01-21 16:38:13.500000,-8.375,24.625,264.25,0.981,394.0,-124.0,890.0
2020-01-21 16:38:13.600000,-8.563,24.375,264.312,0.98,387.0,-127.0,892.0
2020-01-21 16:38:13.700000,-8.563,24.25,264.312,0.98,387.0,-127.0,892.0
2020-01-21 16:38:13.800000,-8.563,24.25,264.312,0.98,387.0,-127.0,892.0
2020-01-21 16:38:13.900000,-8.5,24.187,264.312,0.981,388.0,-128.0,892.0
2020-01-21 16:38:14,-8.5,24.125,264.312,0.983,388.0,-127.0,895.0
2020-01-21 16:38:14.100000,-8.5,24.125,264.312,0.983,388.0,-127.0,895.0
2020-01-21 16:38:14.200000,-8.5,23.937,264.375,0.977,382.0,-130.0,890.0
2020-01-21 16:38:14.300000,-8.5,23.687,264.375,0.983,387.0,-129.0,895.0
2020-01-21 16:38:14.400000,-8.5,23.687,264.375,0.983,387.0,-129.0,895.0
2020-01-21 16:38:14.500000,-8.438,23.875,264.375,0.979,385.0,-128.0,892.0
2020-01-21 16:38:14.600000,-8.438,23.812,264.375,0.981,385.0,-129.0,894.0
2020-01-21 16:38:14.700000,-8.438,23.812,264.375,0.981,385.0,-129.0,894.0
2020-01-21 16:38:14.800000,-8.313,23.687,264.375,0.981,381.0,-130.0,895.0
2020-01-21 16:38:14.900000,-8.5,23.437,264.437,0.983,375.0,-136.0,899.0
2020-01-21 16:38:15,-8.5,23.437,264.437,0.983,375.0,-136.0,899.0
2020-01-21 16:38:15.100000,-8.625,22.937,264.5,0.982,366.0,-137.0,901.0
2020-01-21 16:38:15.200000,-8.813,22.25,264.625,0.979,354.0,-142.0,902.0
2020-01-21 16:38:15.300000,-8.813,22.25,264.625,0.979,354.0,-142.0,902.0
2020-01-21 16:38:15.400000,-9.063,21.75,264.687,0.98,345.0,-147.0,906.0
2020-01-21 16:38:15.500000,-9.375,21.25,264.75,0.977,335.0,-151.0,906.0
2020-01-21 16:38:15.600000,-9.375,21.25,264.75,0.977,335.0,-151.0,906.0
2020-01-21 16:38:15.700000,-9.25,21.0,264.75,0.981,339.0,-144.0,910.0
2020-01-21 16:38:15.800000,-8.938,21.062,264.812,0.979,347.0,-138.0,906.0
2020-01-21 16:38:15.900000,-8.938,21.062,264.812,0.979,347.0,-138.0,906.0
2020-01-21 16:38:16,-8.75,21.312,264.75,0.98,347.0,-137.0,907.0
2020-01-21 16:38:16.100000,-8.625,21.687,264.687,0.979,359.0,-132.0,902.0
2020-01-21 16:38:16.200000,-8.625,21.687,264.687,0.979,359.0,-132.0,902.0
2020-01-21 16:38:16.300000,-8.563,22.125,264.5,0.981,361.0,-136.0,902.0
2020-01-21 16:38:16.400000,-8.5,22.687,264.312,0.988,389.0,-126.0,900.0
2020-01-21 16:38:16.500000,-8.5,22.687,264.312,0.988,389.0,-126.0,900.0
2020-01-21 16:38:16.600000,-8.188,23.75,264.062,0.979,391.0,-121.0,890.0
2020-01-21 16:38:16.700000,-8.125,24.187,264.062,0.976,398.0,-119.0,884.0
2020-01-21 16:38:16.800000,-7.875,25.062,264.25,0.978,415.0,-110.0,879.0
2020-01-21 16:38:16.900000,-7.875,25.062,264.25,0.978,415.0,-110.0,879.0
2020-01-21 16:38:17,-7.813,25.812,264.125,0.973,408.0,-121.0,876.0
2020-01-21 16:38:17.100000,-8.938,24.937,263.687,0.984,415.0,-151.0,880.0
2020-01-21 16:38:17.200000,-8.938,24.937,263.687,0.984,415.0,-151.0,880.0
2020-01-21 16:38:17.300000,-10.125,25.437,262.562,0.995,429.0,-166.0,883.0
2020-01-21 16:38:17.400000,-10.625,25.0,262.312,0.975,401.0,-163.0,874.0
2020-01-21 16:38:17.500000,-10.625,25.0,262.312,0.975,401.0,-163.0,874.0
2020-01-21 16:38:17.600000,-10.688,24.562,262.125,0.983,404.0,-165.0,881.0
2020-01-21 16:38:17.700000,-10.688,24.625,261.812,0.979,401.0,-164.0,879.0
2020-01-21 16:38:17.800000,-10.688,24.625,261.812,0.979,401.0,-164.0,879.0
2020-01-21 16:38:17.900000,-10.688,24.437,261.812,0.982,399.0,-167.0,882.0
2020-01-21 16:38:18,-10.563,24.125,261.812,0.979,394.0,-167.0,881.0
2020-01-21 16:38:18.100000,-10.563,24.125,261.812,0.979,394.0,-167.0,881.0
2020-01-21 16:38:18.200000,-10.75,24.125,261.812,0.981,397.0,-167.0,882.0
2020-01-21 16:38:18.300000,-10.75,24.437,261.937,0.982,399.0,-168.0,882.0
2020-01-21 16:38:18.400000,-10.75,24.437,261.937,0.982,399.0,-168.0,882.0
2020-01-21 16:38:18.500000,-10.75,24.25,261.812,0.98,396.0,-168.0,881.0
2020-01-21 16:38:18.600000,-10.75,24.25,261.812,0.98,397.0,-167.0,881.0
2020-01-21 16:38:18.700000,-10.75,24.25,261.812,0.98,397.0,-167.0,881.0
2020-01-21 16:38:18.800000,-10.75,24.25,261.812,0.981,397.0,-168.0,882.0
2020-01-21 16:38:18.900000,-10.75,24.25,261.812,0.981,396.0,-168.0,882.0
2020-01-21 16:38:19,-10.75,24.25,261.812,0.981,396.0,-168.0,882.0
2020-01-21 16:38:19.100000,-10.75,24.25,261.812,0.981,396.0,-167.0,882.0
2020-01-21 16:38:19.200000,-10.75,24.25,261.812,0.981,396.0,-168.0,882.0
2020-01-21 16:38:19.300000,-10.75,24.25,261.812,0.981,396.0,-168.0,882.0
2020-01-21 16:38:19.400000,-10.75,24.25,261.812,0.981,396.0,-168.0,882.0
2020-01-21 16:38:19.500000,-10.75,24.25,261.812,0.981,397.0,-168.0,882.0
2020-01-21 16:38:19.600000,-10.75,24.25,261.812,0.981,397.0,-168.0,882.0
2020-01-21 16:38:19.700000,-10.75,24.25,261.812,0.981,396.0,-168.0,882.0
2020-01-21 16:38:19.800000,-10.75,24.25,261.812,0.981,397.0,-168.0,882.0
2020-01-21 16:38:19.900000,-10.75,24.25,261.812,0.981,397.0,-168.0,882.0
2020-01-21 16:38:20,-10.75,24.25,261.812,0.981,396.0,-168.0,882.0
2020-01-21 16:38:20.100000,-10.75,24.25,261.812,0.981,397.0,-168.0,882.0
2020-01-21 16:38:20.200000,-10.75,24.25,261.812,0.981,397.0,-168.0,882.0
2020-01-21 16:38:20.300000,-10.75,24.25,261.812,0.98,397.0,-168.0,881.0
2020-01-21 16:38:20.400000,-10.75,24.25,261.812,0.982,398.0,-168.0,882.0
2020-01-21 16:38:20.500000,-10.75,24.25,261.812,0.982,398.0,-168.0,882.0
2020-01-21 16:38:20.600000,-10.75,24.25,261.812,0.98,395.0,-168.0,882.0
2020-01-21 16:38:20.700000,-10.75,24.25,261.812,0.981,397.0,-168.0,882.0
2020-01-21 16:38:20.800000,-10.75,24.25,261.812,0.981,397.0,-168.0,882.0
2020-01-21 16:38:20.900000,-10.75,24.25,261.812,0.981,397.0,-168.0,882.0
2020-01-21 16:38:21,-10.75,24.25,261.812,0.981,397.0,-168.0,882.0
2020-01-21 16:38:21.100000,-10.75,24.25,261.812,0.981,397.0,-168.0,882.0
2020-01-21 16:38:21.200000,-10.75,24.25,261.812,0.981,396.0,-168.0,882.0
2020-01-21 16:38:21.300000,-10.75,24.25,261.812,0.981,397.0,-168.0,882.0
2020-01-21 16:38:21.400000,-10.75,24.25,261.812,0.981,397.0,-168.0,882.0
2020-01-21 16:38:21.500000,-10.75,24.25,261.812,0.981,397.0,-168.0,882.0
2020-01-21 16:38:21.600000,-10.75,24.25,261.812,0.982,398.0,-168.0,882.0
2020-01-21 16:38:21.700000,-10.75,24.25,261.812,0.982,398.0,-168.0,882.0
2020-01-21 16:38:21.800000,-10.75,24.25,261.812,0.981,397.0,-168.0,882.0
2020-01-21 16:38:21.900000,-10.75,24.25,261.812,0.981,397.0,-168.0,882.0
2020-01-21 16:38:22,-10.75,24.25,261.812,0.981,397.0,-168.0,882.0
2020-01-21 16:38:22.100000,-10.75,24.25,261.812,0.98,397.0,-168.0,881.0
2020-01-21 16:38:22.200000,-10.75,24.25,261.812,0.981,396.0,-169.0,882.0
2020-01-21 16:38:22.300000,-10.75,24.25,261.812,0.981,396.0,-169.0,882.0
2020-01-21 16:38:22.400000,-10.75,24.25,261.812,0.981,397.0,-168.0,882.0
2020-01-21 16:38:22.500000,-10.75,24.25,261.812,0.98,396.0,-168.0,881.0
2020-01-21 16:38:22.600000,-10.75,24.25,261.812,0.98,396.0,-168.0,881.0
2020-01-21 16:38:22.700000,-10.75,24.25,261.812,0.982,398.0,-169.0,882.0
2020-01-21 16:38:22.800000,-10.75,24.25,261.812,0.981,397.0,-168.0,882.0
2020-01-21 16:38:22.900000,-10.75,24.25,261.812,0.981,397.0,-168.0,882.0
2020-01-21 16:38:23,-10.75,24.25,261.812,0.981,397.0,-168.0,882.0
2020-01-21 16:38:23.100000,-10.75,24.25,261.812,0.981,397.0,-168.0,882.0
2020-01-21 16:38:23.200000,-10.75,24.25,261.812,0.981,397.0,-168.0,882.0
2020-01-21 16:38:23.300000,-10.75,24.25,261.812,0.981,396.0,-168.0,882.0
2020-01-21 16:38:23.400000,-10.75,24.25,261.812,0.981,397.0,-168.0,882.0
2020-01-21 16:38:23.500000,-10.75,24.25,261.812,0.981,397.0,-168.0,882.0
2020-01-21 16:38:23.600000,-10.75,24.25,261.812,0.981,397.0,-168.0,882.0
2020-01-21 16:38:23.700000,-10.75,24.25,261.812,0.981,396.0,-168.0,882.0
2020-01-21 16:38:23.800000,-10.75,24.25,261.812,0.981,396.0,-168.0,882.0
2020-01-21 16:38:23.900000,-10.75,24.25,261.812,0.981,397.0,-168.0,882.0
2020-01-21 16:38:24,-10.75,24.25,261.812,0.98,396.0,-168.0,881.0
2020-01-21 16:38:24.100000,-10.75,24.25,261.812,0.981,397.0,-168.0,882.0
2020-01-21 16:38:24.200000,-10.75,24.25,261.812,0.981,397.0,-168.0,882.0
2020-01-21 16:38:24.300000,-10.75,24.25,261.812,0.981,397.0,-169.0,882.0
2020-01-21 16:38:24.400000,-10.75,24.25,261.812,0.981,397.0,-168.0,882.0
2020-01-21 16:38:24.500000,-10.75,24.25,261.812,0.981,397.0,-168.0,882.0
2020-01-21 16:38:24.600000,-10.75,24.25,261.812,0.981,396.0,-168.0,882.0
2020-01-21 16:38:24.700000,-10.75,24.25,261.812,0.98,397.0,-168.0,881.0
2020-01-21 16:38:24.800000,-10.75,24.25,261.812,0.98,397.0,-168.0,881.0
2020-01-21 16:38:24.900000,-10.75,24.25,261.812,0.98,397.0,-168.0,881.0
2020-01-21 16:38:25,-10.75,24.25,261.812,0.981,397.0,-168.0,882.0
2020-01-21 16:38:25.100000,-10.75,24.25,261.812,0.981,397.0,-168.0,882.0
2020-01-21 16:38:25.200000,-10.75,24.25,261.812,0.981,397.0,-168.0,882.0
2020-01-21 16:38:25.300000,-10.75,24.25,261.812,0.981,397.0,-168.0,882.0
2020-01-21 16:38:25.400000,-10.75,24.25,261.812,0.981,397.0,-168.0,882.0
2020-01-21 16:38:25.500000,-10.75,24.25,261.812,0.981,397.0,-169.0,882.0
2020-01-21 16:38:25.600000,-10.75,24.25,261.812,0.98,396.0,-169.0,881.0
2020-01-21 16:38:25.700000,-10.75,24.25,261.812,0.98,396.0,-169.0,881.0
2020-01-21 16:38:25.800000,-10.75,24.25,261.812,0.981,397.0,-168.0,882.0
2020-01-21 16:38:25.900000,-10.75,24.25,261.812,0.979,396.0,-169.0,880.0
2020-01-21 16:38:26,-10.75,24.25,261.812,0.979,396.0,-169.0,880.0
2020-01-21 16:38:26.100000,-10.75,24.25,261.812,0.98,397.0,-168.0,881.0
2020-01-21 16:38:26.200000,-10.75,24.25,261.812,0.98,397.0,-169.0,881.0
2020-01-21 16:38:26.300000,-10.75,24.25,261.812,0.98,397.0,-169.0,881.0
2020-01-21 16:38:26.400000,-10.75,24.25,261.812,0.981,397.0,-169.0,882.0
2020-01-21 16:38:26.500000,-10.75,24.25,261.812,0.98,397.0,-168.0,881.0
2020-01-21 16:38:26.600000,-10.75,24.25,261.812,0.98,397.0,-168.0,881.0
2020-01-21 16:38:26.700000,-10.75,24.25,261.812,0.981,397.0,-169.0,882.0
2020-01-21 16:38:26.800000,-10.75,24.25,261.812,0.98,397.0,-168.0,881.0
2020-01-21 16:38:26.900000,-10.75,24.25,261.812,0.98,397.0,-168.0,881.0
2020-01-21 16:38:27,-10.75,24.25,261.812,0.981,397.0,-168.0,882.0
2020-01-21 16:38:27.100000,-10.75,24.25,261.812,0.98,397.0,-169.0,881.0
2020-01-21 16:38:27.200000,-10.75,24.25,261.812,0.98,397.0,-169.0,881.0
2020-01-21 16:38:27.300000,-10.75,24.25,261.812,0.98,397.0,-168.0,881.0
2020-01-21 16:38:27.400000,-10.75,24.25,261.812,0.981,397.0,-168.0,882.0
2020-01-21 16:38:27.500000,-10.75,24.25,261.812,0.981,397.0,-168.0,882.0
2020-01-21 16:38:27.600000,-10.75,24.25,261.812,0.981,397.0,-169.0,882.0
2020-01-21 16:38:27.700000,-10.75,24.25,261.812,0.981,397.0,-168.0,882.0
2020-01-21 16:38:27.800000,-10.75,24.25,261.812,0.981,397.0,-168.0,882.0
2020-01-21 16:38:27.900000,-10.75,24.25,261.812,0.981,397.0,-168.0,882.0
2020-01-21 16:38:28,-10.75,24.25,261.812,0.98,396.0,-169.0,881.0
2020-01-21 16:38:28.100000,-10.75,24.25,261.812,0.98,396.0,-169.0,881.0
2020-01-21 16:38:28.200000,-10.75,24.25,261.812,0.981,397.0,-168.0,882.0
2020-01-21 16:38:28.300000,-10.75,24.25,261.812,0.98,397.0,-169.0,881.0
2020-01-21 16:38:28.400000,-10.75,24.25,261.812,0.98,397.0,-169.0,881.0
2020-01-21 16:38:28.500000,-10.75,24.25,261.812,0.982,398.0,-169.0,882.0
2020-01-21 16:38:28.600000,-10.75,24.25,261.812,0.98,397.0,-169.0,881.0
2020-01-21 16:38:28.700000,-10.75,24.25,261.812,0.98,397.0,-169.0,881.0
2020-01-21 16:38:28.800000,-10.75,24.25,261.812,0.98,397.0,-168.0,881.0
2020-01-21 16:38:28.900000,-10.75,24.25,261.812,0.981,397.0,-168.0,882.0
2020-01-21 16:38:29,-10.75,24.25,261.812,0.981,397.0,-168.0,882.0
2020-01-21 16:38:29.100000,-10.75,24.25,261.812,0.98,397.0,-169.0,881.0
2020-01-21 16:38:29.200000,-10.75,24.25,261.812,0.98,396.0,-168.0,881.0
2020-01-21 16:38:29.300000,-10.75,24.25,261.812,0.98,396.0,-168.0,881.0
2020-01-21 16:38:29.400000,-10.75,24.25,261.812,0.98,397.0,-168.0,881.0
2020-01-21 16:38:29.500000,-10.75,24.25,261.812,0.98,396.0,-169.0,881.0
2020-01-21 16:38:29.600000,-10.75,24.25,261.812,0.98,396.0,-169.0,881.0
2020-01-21 16:38:29.700000,-10.75,24.25,261.812,0.981,397.0,-169.0,882.0
2020-01-21 16:38:29.800000,-10.75,24.25,261.812,0.98,397.0,-169.0,881.0
2020-01-21 16:38:29.900000,-10.75,24.25,261.812,0.98,397.0,-169.0,881.0
2020-01-21 16:38:30,-10.75,24.25,261.812,0.981,397.0,-169.0,882.0
2020-01-21 16:38:30.100000,-10.75,24.25,261.812,0.98,397.0,-168.0,881.0
2020-01-21 16:38:30.200000,-10.75,24.25,261.812,0.98,397.0,-168.0,881.0
2020-01-21 16:38:30.300000,-10.75,24.25,261.812,0.979,397.0,-168.0,880.0
2020-01-21 16:38:30.400000,-10.75,24.25,261.812,0.981,397.0,-168.0,882.0
2020-01-21 16:38:30.500000,-10.75,24.25,261.812,0.981,397.0,-168.0,882.0
2020-01-21 16:38:30.600000,-10.75,24.25,261.812,0.981,396.0,-168.0,882.0
2020-01-21 16:38:30.700000,-10.75,24.25,261.812,0.981,397.0,-168.0,882.0
2020-01-21 16:38:30.800000,-10.75,24.25,261.812,0.981,397.0,-168.0,882.0
2020-01-21 16:38:30.900000,-10.75,24.25,261.812,0.981,397.0,-169.0,882.0
2020-01-21 16:38:31,-10.75,24.25,261.812,0.98,397.0,-168.0,881.0
2020-01-21 16:38:31.100000,-10.75,24.25,261.812,0.98,397.0,-168.0,881.0
2020-01-21 16:38:31.200000,-10.75,24.25,261.812,0.981,397.0,-168.0,882.0
2020-01-21 16:38:31.300000,-10.75,24.25,261.812,0.98,397.0,-169.0,881.0
2020-01-21 16:38:31.400000,-10.75,24.25,261.812,0.98,397.0,-169.0,881.0
2020-01-21 16:38:31.500000,-10.75,24.25,261.812,0.981,397.0,-168.0,882.0
2020-01-21 16:38:31.600000,-10.75,24.25,261.812,0.982,398.0,-169.0,882.0
2020-01-21 16:38:31.700000,-10.75,24.25,261.812,0.982,398.0,-169.0,882.0
2020-01-21 16:38:31.800000,-10.75,24.25,261.812,0.979,397.0,-168.0,880.0
2020-01-21 16:38:31.900000,-10.75,24.25,261.812,0.981,398.0,-168.0,881.0
2020-01-21 16:38:32,-10.75,24.25,261.812,0.981,398.0,-168.0,881.0
2020-01-21 16:38:32.100000,-10.75,24.25,261.812,0.981,397.0,-168.0,882.0
2020-01-21 16:38:32.200000,-10.75,24.25,261.812,0.981,398.0,-168.0,881.0
2020-01-21 16:38:32.300000,-10.75,24.25,261.812,0.981,398.0,-168.0,881.0
2020-01-21 16:38:32.400000,-10.75,24.25,261.812,0.98,397.0,-168.0,881.0
2020-01-21 16:38:32.500000,-10.75,24.25,261.812,0.982,398.0,-169.0,882.0
2020-01-21 16:38:32.600000,-10.75,24.25,261.812,0.982,398.0,-169.0,882.0
2020-01-21 16:38:32.700000,-10.75,24.25,261.812,0.98,397.0,-168.0,881.0
2020-01-21 16:38:32.800000,-10.75,24.25,261.812,0.98,397.0,-168.0,881.0
2020-01-21 16:38:32.900000,-10.75,24.25,261.812,0.98,397.0,-168.0,881.0
2020-01-21 16:38:33,-10.75,24.25,261.812,0.979,397.0,-168.0,880.0
2020-01-21 16:38:33.100000,-10.75,24.25,261.812,0.982,398.0,-168.0,882.0
2020-01-21 16:38:33.200000,-10.75,24.25,261.812,0.982,398.0,-168.0,882.0
2020-01-21 16:38:33.300000,-10.75,24.25,261.812,0.981,398.0,-168.0,881.0
2020-01-21 16:38:33.400000,-10.75,24.25,261.812,0.981,399.0,-168.0,881.0
2020-01-21 16:38:33.500000,-10.75,24.25,261.812,0.981,399.0,-168.0,881.0
2020-01-21 16:38:33.600000,-10.75,24.25,261.812,0.981,398.0,-169.0,881.0
2020-01-21 16:38:33.700000,-10.75,24.25,261.812,0.981,398.0,-168.0,881.0
2020-01-21 16:38:33.800000,-10.75,24.25,261.812,0.981,398.0,-168.0,881.0
2020-01-21 16:38:33.900000,-10.75,24.25,261.812,0.981,398.0,-168.0,881.0
2020-01-21 16:38:34,-10.75,24.25,261.812,0.981,398.0,-169.0,881.0
2020-01-21 16:38:34.100000,-10.75,24.25,261.812,0.981,398.0,-169.0,881.0
2020-01-21 16:38:34.200000,-10.75,24.25,261.812,0.981,399.0,-168.0,881.0
2020-01-21 16:38:34.300000,-10.75,24.25,261.812,0.981,398.0,-168.0,881.0
2020-01-21 16:38:34.400000,-10.75,24.25,261.812,0.981,398.0,-168.0,881.0
2020-01-21 16:38:34.500000,-10.75,24.25,261.812,0.981,398.0,-167.0,881.0
2020-01-21 16:38:34.600000,-10.75,24.25,261.812,0.981,399.0,-169.0,881.0
2020-01-21 16:38:34.700000,-10.75,24.25,261.812,0.981,399.0,-169.0,881.0
2020-01-21 16:38:34.800000,-10.75,24.25,261.812,0.982,400.0,-168.0,881.0
2020-01-21 16:38:34.900000,-10.75,24.25,261.812,0.98,398.0,-169.0,880.0
2020-01-21 16:38:35,-10.75,24.25,261.812,0.98,398.0,-169.0,880.0
2020-01-21 16:38:35.100000,-10.75,24.25,261.812,0.981,399.0,-168.0,881.0
2020-01-21 16:38:35.200000,-10.75,24.25,261.812,0.98,399.0,-167.0,880.0
2020-01-21 16:38:35.300000,-10.75,24.25,261.812,0.98,399.0,-167.0,880.0
2020-01-21 16:38:35.400000,-10.75,24.25,261.812,0.982,400.0,-168.0,881.0
2020-01-21 16:38:35.500000,-10.75,24.25,261.812,0.981,398.0,-169.0,881.0
2020-01-21 16:38:35.600000,-10.75,24.25,261.812,0.981,398.0,-169.0,881.0
2020-01-21 16:38:35.700000,-10.75,24.25,261.812,0.98,398.0,-168.0,880.0
2020-01-21 16:38:35.800000,-10.75,24.312,261.937,0.982,400.0,-168.0,881.0
2020-01-21 16:38:35.900000,-10.75,24.312,261.937,0.982,400.0,-168.0,881.0
2020-01-21 16:38:36,-10.75,24.312,261.75,0.98,399.0,-168.0,880.0
2020-01-21 16:38:36.100000,-10.75,24.312,261.75,0.981,399.0,-168.0,881.0
2020-01-21 16:38:36.200000,-10.75,24.312,261.75,0.981,399.0,-168.0,881.0
2020-01-21 16:38:36.300000,-10.75,24.312,261.75,0.98,399.0,-168.0,880.0
2020-01-21 16:38:36.400000,-10.75,24.312,261.75,0.981,399.0,-168.0,881.0
2020-01-21 16:38:36.500000,-10.75,24.312,261.75,0.981,399.0,-168.0,881.0
2020-01-21 16:38:36.600000,-10.75,24.437,261.812,0.982,399.0,-169.0,882.0
2020-01-21 16:38:36.700000,-10.75,24.312,261.812,0.98,395.0,-169.0,881.0
2020-01-21 16:38:36.800000,-10.75,24.312,261.812,0.98,395.0,-169.0,881.0
2020-01-21 16:38:36.900000,-10.688,24.062,261.812,0.978,394.0,-168.0,880.0
2020-01-21 16:38:37,-10.563,24.25,261.875,0.981,399.0,-166.0,881.0
2020-01-21 16:38:37.100000,-10.563,24.25,261.875,0.981,399.0,-166.0,881.0
2020-01-21 16:38:37.200000,-10.375,24.562,261.937,0.981,404.0,-158.0,880.0
2020-01-21 16:38:37.300000,-10.0,25.0,261.937,0.984,410.0,-156.0,881.0
2020-01-21 16:38:37.400000,-10.0,25.0,261.937,0.984,410.0,-156.0,881.0
2020-01-21 16:38:37.500000,-10.188,24.625,261.937,0.979,403.0,-159.0,879.0
2020-01-21 16:38:37.600000,-10.188,24.625,261.937,0.981,404.0,-158.0,880.0
2020-01-21 16:38:37.700000,-10.188,24.625,261.937,0.981,404.0,-158.0,880.0
2020-01-21 16:38:37.800000,-10.188,24.75,261.937,0.981,403.0,-159.0,881.0
2020-01-21 16:38:37.900000,-10.25,24.562,262.0,0.981,400.0,-163.0,881.0
2020-01-21 16:38:38,-10.25,24.562,262.0,0.981,400.0,-163.0,881.0
2020-01-21 16:38:38.100000,-10.188,24.25,262.187,0.982,398.0,-163.0,883.0
2020-01-21 16:38:38.200000,-10.188,24.187,262.0,0.98,395.0,-164.0,882.0
2020-01-21 16:38:38.300000,-10.188,24.187,262.0,0.98,395.0,-164.0,882.0
2020-01-21 16:38:38.400000,-10.188,24.187,262.0,0.98,396.0,-165.0,882.0
2020-01-21 16:38:38.500000,-10.188,24.187,262.0,0.982,396.0,-164.0,884.0
2020-01-21 16:38:38.600000,-10.188,24.187,262.0,0.982,396.0,-164.0,884.0
2020-01-21 16:38:38.700000,-10.188,24.187,262.0,0.981,395.0,-165.0,883.0
2020-01-21 16:38:38.800000,-10.188,24.187,262.0,0.981,396.0,-164.0,883.0
2020-01-21 16:38:38.900000,-10.188,24.187,262.0,0.981,396.0,-164.0,883.0
2020-01-21 16:38:39,-10.188,24.187,262.0,0.981,395.0,-165.0,883.0
2020-01-21 16:38:39.100000,-10.188,24.187,262.0,0.981,396.0,-164.0,883.0
2020-01-21 16:38:39.200000,-10.188,24.187,262.0,0.981,396.0,-164.0,883.0
2020-01-21 16:38:39.300000,-10.188,24.187,262.0,0.981,395.0,-165.0,883.0
2020-01-21 16:38:39.400000,-10.188,24.187,262.0,0.981,397.0,-164.0,883.0
2020-01-21 16:38:39.500000,-10.188,24.187,262.0,0.981,397.0,-164.0,883.0
2020-01-21 16:38:39.600000,-10.188,24.187,262.0,0.979,394.0,-164.0,882.0
2020-01-21 16:38:39.700000,-10.188,24.187,262.0,0.981,396.0,-163.0,883.0
2020-01-21 16:38:39.800000,-10.188,24.187,262.0,0.981,396.0,-163.0,883.0
2020-01-21 16:38:39.900000,-10.188,24.187,262.0,0.981,395.0,-165.0,883.0
2020-01-21 16:38:40,-10.188,24.187,262.0,0.981,397.0,-164.0,882.0
2020-01-21 16:38:40.100000,-10.188,24.187,262.0,0.981,397.0,-164.0,882.0
2020-01-21 16:38:40.200000,-10.188,24.187,262.0,0.98,396.0,-164.0,882.0
2020-01-21 16:38:40.300000,-10.188,24.187,262.0,0.981,396.0,-164.0,883.0
2020-01-21 16:38:40.400000,-10.188,24.187,262.0,0.981,396.0,-164.0,883.0
2020-01-21 16:38:40.500000,-10.188,24.187,262.0,0.982,397.0,-165.0,883.0
2020-01-21 16:38:40.600000,-10.188,24.187,262.0,0.981,397.0,-164.0,883.0
2020-01-21 16:38:40.700000,-10.188,24.187,262.0,0.98,396.0,-164.0,882.0
2020-01-21 16:38:40.800000,-10.188,24.187,262.0,0.98,396.0,-164.0,882.0
2020-01-21 16:38:40.900000,-10.188,24.187,262.0,0.981,397.0,-164.0,883.0
2020-01-21 16:38:41,-10.188,24.187,262.0,0.981,396.0,-165.0,883.0
2020-01-21 16:38:41.100000,-10.188,24.187,262.0,0.981,396.0,-165.0,883.0
2020-01-21 16:38:41.200000,-10.188,24.187,262.0,0.981,396.0,-164.0,883.0
2020-01-21 16:38:41.300000,-10.188,24.187,262.0,0.98,396.0,-164.0,882.0
2020-01-21 16:38:41.400000,-10.188,24.187,262.0,0.98,396.0,-164.0,882.0
2020-01-21 16:38:41.500000,-10.188,24.187,262.0,0.981,396.0,-165.0,883.0
2020-01-21 16:38:41.600000,-10.188,24.187,262.0,0.98,396.0,-163.0,882.0
2020-01-21 16:38:41.700000,-10.188,24.187,262.0,0.98,396.0,-163.0,882.0
2020-01-21 16:38:41.800000,-10.188,24.187,262.0,0.981,396.0,-164.0,883.0
2020-01-21 16:38:41.900000,-10.188,24.187,262.0,0.981,397.0,-163.0,883.0
2020-01-21 16:38:42,-10.188,24.187,262.0,0.981,397.0,-163.0,883.0
2020-01-21 16:38:42.100000,-10.188,24.187,262.0,0.981,397.0,-164.0,883.0
2020-01-21 16:38:42.200000,-10.188,24.187,262.0,0.981,397.0,-164.0,883.0
2020-01-21 16:38:42.300000,-10.188,24.187,262.0,0.981,397.0,-165.0,882.0
2020-01-21 16:38:42.400000,-10.188,24.25,262.0,0.981,396.0,-164.0,883.0
2020-01-21 16:38:42.500000,-10.188,24.25,262.0,0.981,396.0,-164.0,883.0
2020-01-21 16:38:42.600000,-10.188,24.25,262.0,0.981,397.0,-164.0,882.0
2020-01-21 16:38:42.700000,-10.188,24.25,262.0,0.981,397.0,-163.0,883.0
2020-01-21 16:38:42.800000,-10.188,24.25,262.0,0.979,396.0,-164.0,881.0
2020-01-21 16:38:42.900000,-10.188,24.25,262.0,0.979,396.0,-164.0,881.0
2020-01-21 16:38:43,-10.25,24.25,262.0,0.981,399.0,-163.0,882.0
2020-01-21 16:38:43.100000,-10.25,24.375,262.0,0.982,396.0,-167.0,883.0
2020-01-21 16:38:43.200000,-10.25,24.375,262.0,0.982,396.0,-167.0,883.0
2020-01-21 16:38:43.300000,-10.25,24.125,262.0,0.981,397.0,-164.0,883.0
2020-01-21 16:38:43.400000,-10.25,24.187,262.0,0.98,397.0,-161.0,882.0
2020-01-21 16:38:43.500000,-10.25,24.187,262.0,0.98,397.0,-161.0,882.0
2020-01-21 16:38:43.600000,-10.25,24.312,262.0,0.982,398.0,-164.0,883.0
2020-01-21 16:38:43.700000,-10.25,24.125,262.0,0.979,396.0,-163.0,881.0
2020-01-21 16:38:43.800000,-10.25,24.125,262.0,0.979,396.0,-163.0,881.0
2020-01-21 16:38:43.900000,-10.25,24.187,262.0,0.98,399.0,-163.0,881.0
2020-01-21 16:38:44,-10.25,24.187,262.0,0.98,399.0,-163.0,881.0
2020-01-21 16:38:44.100000,-10.25,24.312,262.0,0.982,401.0,-165.0,882.0
2020-01-21 16:38:44.200000,-10.25,24.312,262.0,0.98,400.0,-164.0,880.0
2020-01-21 16:38:44.300000,-10.25,24.312,262.0,0.98,400.0,-164.0,880.0
2020-01-21 16:38:44.400000,-10.25,24.312,262.0,0.982,402.0,-165.0,881.0
2020-01-21 16:38:44.500000,-10.25,24.312,262.0,0.981,401.0,-166.0,880.0
2020-01-21 16:38:44.600000,-10.25,24.312,262.0,0.982,401.0,-166.0,881.0
2020-01-21 16:38:44.700000,-10.25,24.312,262.0,0.982,401.0,-166.0,881.0
2020-01-21 16:38:44.800000,-10.25,24.312,262.0,0.981,400.0,-165.0,881.0
2020-01-21 16:38:44.900000,-10.25,24.312,262.0,0.981,401.0,-165.0,880.0
2020-01-21 16:38:45,-10.25,24.312,262.0,0.981,401.0,-165.0,880.0
2020-01-21 16:38:45.100000,-10.25,24.312,262.0,0.981,401.0,-165.0,880.0
2020-01-21 16:38:45.200000,-10.25,24.312,262.0,0.981,401.0,-165.0,880.0
2020-01-21 16:38:45.300000,-10.25,24.312,262.0,0.981,401.0,-165.0,880.0
2020-01-21 16:38:45.400000,-10.25,24.312,262.0,0.981,401.0,-165.0,881.0
2020-01-21 16:38:45.500000,-10.25,24.312,262.125,0.981,402.0,-167.0,880.0
2020-01-21 16:38:45.600000,-10.25,24.312,262.125,0.981,402.0,-167.0,880.0
2020-01-21 16:38:45.700000,-10.25,24.5,261.937,0.979,405.0,-164.0,877.0
2020-01-21 16:38:45.800000,-10.25,24.687,262.062,0.981,409.0,-163.0,877.0
2020-01-21 16:38:45.900000,-10.25,24.687,262.062,0.981,409.0,-163.0,877.0
2020-01-21 16:38:46,-10.25,24.75,261.875,0.98,410.0,-163.0,876.0
2020-01-21 16:38:46.100000,-10.25,24.875,261.875,0.981,409.0,-164.0,877.0
2020-01-21 16:38:46.200000,-10.25,24.875,261.875,0.981,409.0,-164.0,877.0
2020-01-21 16:38:46.300000,-10.25,24.625,261.937,0.98,407.0,-163.0,877.0
2020-01-21 16:38:46.400000,-10.25,24.625,261.937,0.98,408.0,-163.0,877.0
2020-01-21 16:38:46.500000,-10.25,24.625,261.937,0.98,408.0,-163.0,877.0
2020-01-21 16:38:46.600000,-10.25,24.625,261.937,0.98,408.0,-163.0,876.0
2020-01-21 16:38:46.700000,-10.25,24.625,261.937,0.98,408.0,-163.0,877.0
2020-01-21 16:38:46.800000,-10.25,24.625,261.937,0.98,408.0,-163.0,877.0
2020-01-21 16:38:46.900000,-10.25,24.625,261.937,0.981,407.0,-164.0,878.0
2020-01-21 16:38:47,-10.25,24.625,261.937,0.98,408.0,-163.0,877.0
2020-01-21 16:38:47.100000,-10.25,24.625,261.937,0.98,408.0,-163.0,877.0
2020-01-21 16:38:47.200000,-10.25,24.625,261.937,0.981,408.0,-163.0,878.0
2020-01-21 16:38:47.300000,-10.25,24.625,261.937,0.98,408.0,-163.0,877.0
2020-01-21 16:38:47.400000,-10.25,24.625,261.937,0.98,408.0,-163.0,877.0
2020-01-21 16:38:47.500000,-10.25,24.625,261.937,0.98,408.0,-162.0,877.0
2020-01-21 16:38:47.600000,-10.25,24.625,261.937,0.982,409.0,-162.0,878.0
2020-01-21 16:38:47.700000,-10.25,24.625,261.937,0.982,409.0,-162.0,878.0
2020-01-21 16:38:47.800000,-10.25,24.625,261.937,0.98,409.0,-161.0,876.0
2020-01-21 16:38:47.900000,-10.25,24.75,261.937,0.982,409.0,-166.0,878.0
2020-01-21 16:38:48,-10.25,24.75,261.937,0.982,409.0,-166.0,878.0
2020-01-21 16:38:48.100000,-10.25,24.562,261.937,0.978,408.0,-158.0,875.0
2020-01-21 16:38:48.200000,-10.25,24.812,261.937,0.983,412.0,-161.0,878.0
2020-01-21 16:38:48.300000,-10.25,24.812,261.937,0.983,412.0,-161.0,878.0
2020-01-21 16:38:48.400000,-10.25,24.687,261.937,0.979,406.0,-161.0,877.0
2020-01-21 16:38:48.500000,-10.25,24.437,262.0,0.98,404.0,-162.0,879.0
2020-01-21 16:38:48.600000,-10.25,24.437,262.0,0.98,404.0,-162.0,879.0
2020-01-21 16:38:48.700000,-10.25,24.187,262.0,0.981,404.0,-163.0,880.0
2020-01-21 16:38:48.800000,-10.25,24.312,262.0,0.98,400.0,-164.0,880.0
2020-01-21 16:38:48.900000,-10.25,24.312,262.0,0.98,400.0,-164.0,880.0
2020-01-21 16:38:49,-10.25,24.125,262.0,0.984,410.0,-156.0,881.0
2020-01-21 16:38:49.100000,-10.125,24.312,262.0,0.978,399.0,-164.0,878.0
2020-01-21 16:38:49.200000,-10.125,24.312,262.0,0.978,399.0,-164.0,878.0
2020-01-21 16:38:49.300000,-10.313,24.0,262.187,0.982,403.0,-162.0,881.0
2020-01-21 16:38:49.400000,-10.313,24.125,262.0,0.981,403.0,-160.0,880.0
2020-01-21 16:38:49.500000,-10.313,24.125,262.0,0.981,403.0,-160.0,880.0
2020-01-21 16:38:49.600000,-10.313,24.125,262.0,0.98,402.0,-161.0,880.0
2020-01-21 16:38:49.700000,-10.313,24.125,262.0,0.981,404.0,-159.0,880.0
2020-01-21 16:38:49.800000,-10.313,24.125,262.0,0.981,404.0,-159.0,880.0
2020-01-21 16:38:49.900000,-10.313,24.125,262.0,0.98,405.0,-159.0,879.0
2020-01-21 16:38:50,-10.188,24.125,262.0,0.98,404.0,-159.0,879.0
2020-01-21 16:38:50.100000,-10.188,24.125,262.0,0.98,404.0,-159.0,879.0
2020-01-21 16:38:50.200000,-10.375,24.187,262.0,0.981,406.0,-160.0,879.0
2020-01-21 16:38:50.300000,-10.375,24.312,262.125,0.98,408.0,-159.0,877.0
2020-01-21 16:38:50.400000,-10.375,24.312,262.125,0.98,408.0,-159.0,877.0
2020-01-21 16:38:50.500000,-10.375,24.437,261.937,0.98,412.0,-157.0,876.0
2020-01-21 16:38:50.600000,-10.375,24.5,261.937,0.98,413.0,-158.0,875.0
2020-01-21 16:38:50.700000,-10.375,24.5,261.937,0.98,413.0,-158.0,875.0
2020-01-21 16:38:50.800000,-10.375,24.687,262.062,0.98,419.0,-155.0,873.0
2020-01-21 16:38:50.900000,-10.375,25.0,261.875,0.979,425.0,-151.0,869.0
2020-01-21 16:38:51,-10.375,25.0,261.875,0.979,425.0,-151.0,869.0
2020-01-21 16:38:51.100000,-10.25,25.687,261.937,0.979,439.0,-145.0,864.0
2020-01-21 16:38:51.200000,-10.0,26.562,262.062,0.978,453.0,-135.0,857.0
2020-01-21 16:38:51.300000,-10.0,26.562,262.062,0.978,453.0,-135.0,857.0
2020-01-21 16:38:51.400000,-9.688,27.437,262.187,0.978,461.0,-129.0,853.0
2020-01-21 16:38:51.500000,-9.625,27.687,262.25,0.978,465.0,-129.0,851.0
2020-01-21 16:38:51.600000,-9.625,27.687,262.25,0.978,465.0,-129.0,851.0
2020-01-21 16:38:51.700000,-9.625,27.875,262.25,0.978,465.0,-128.0,851.0
2020-01-21 16:38:51.800000,-9.625,27.625,262.25,0.981,469.0,-130.0,852.0
2020-01-21 16:38:51.900000,-9.563,27.875,262.437,0.979,481.0,-126.0,844.0
2020-01-21 16:38:52,-9.563,27.875,262.437,0.979,481.0,-126.0,844.0
2020-01-21 16:38:52.100000,-8.938,30.25,262.75,0.977,525.0,-99.0,818.0
2020-01-21 16:38:52.200000,-8.938,30.25,262.75,0.977,525.0,-99.0,818.0
2020-01-21 16:38:52.300000,-8.063,33.687,263.312,0.972,573.0,-84.0,781.0
2020-01-21 16:38:52.400000,-7.625,36.875,264.062,0.969,590.0,-76.0,766.0
2020-01-21 16:38:52.500000,-7.313,36.5,264.25,0.977,588.0,-83.0,777.0
2020-01-21 16:38:52.600000,-7.313,36.5,264.25,0.977,588.0,-83.0,777.0
2020-01-21 16:38:52.700000,-7.188,35.562,264.187,0.972,565.0,-89.0,787.0
2020-01-21 16:38:52.800000,-7.375,34.312,264.0,0.976,547.0,-98.0,803.0
2020-01-21 16:38:52.900000,-7.375,34.312,264.0,0.976,547.0,-98.0,803.0
2020-01-21 16:38:53,-7.688,32.687,263.687,0.976,522.0,-105.0,818.0
2020-01-21 16:38:53.100000,-7.938,31.25,263.375,0.979,506.0,-117.0,831.0
2020-01-21 16:38:53.200000,-7.938,31.25,263.375,0.979,506.0,-117.0,831.0
2020-01-21 16:38:53.300000,-8.438,30.062,263.062,0.989,506.0,-125.0,841.0
2020-01-21 16:38:53.400000,-8.438,29.812,263.062,0.988,504.0,-124.0,841.0
2020-01-21 16:38:53.500000,-8.438,29.812,263.062,0.988,504.0,-124.0,841.0
2020-01-21 16:38:53.600000,-8.438,29.875,263.062,0.987,505.0,-124.0,840.0
2020-01-21 16:38:53.700000,-8.438,29.937,263.062,0.987,506.0,-123.0,839.0
2020-01-21 16:38:53.800000,-8.438,29.937,263.062,0.987,506.0,-123.0,839.0
2020-01-21 16:38:53.900000,-8.5,30.062,263.062,0.988,508.0,-124.0,839.0
2020-01-21 16:38:54,-8.5,30.187,263.062,0.986,505.0,-123.0,839.0
2020-01-21 16:38:54.100000,-8.5,30.187,263.062,0.986,505.0,-123.0,839.0
2020-01-21 16:38:54.200000,-8.5,30.0,263.062,0.987,503.0,-124.0,841.0
2020-01-21 16:38:54.300000,-8.438,29.75,263.125,0.987,500.0,-126.0,842.0
2020-01-21 16:38:54.400000,-8.438,29.75,263.125,0.987,500.0,-126.0,842.0
2020-01-21 16:38:54.500000,-8.313,29.5,263.25,0.987,496.0,-126.0,844.0
2020-01-21 16:38:54.600000,-8.5,29.312,263.0,0.988,494.0,-129.0,846.0
2020-01-21 16:38:54.700000,-8.5,29.312,263.0,0.988,494.0,-129.0,846.0
2020-01-21 16:38:54.800000,-8.375,29.062,263.0,0.99,496.0,-130.0,847.0
2020-01-21 16:38:54.900000,-8.563,29.25,263.0,0.985,495.0,-126.0,843.0
2020-01-21 16:38:55,-8.563,29.25,263.0,0.985,495.0,-126.0,843.0
2020-01-21 16:38:55.100000,-8.563,29.437,263.0,0.988,497.0,-128.0,845.0
2020-01-21 16:38:55.200000,-8.563,29.25,263.0,0.986,495.0,-128.0,844.0
2020-01-21 16:38:55.300000,-8.563,29.25,263.0,0.986,495.0,-128.0,844.0
2020-01-21 16:38:55.400000,-8.563,29.375,263.0,0.987,496.0,-128.0,844.0
2020-01-21 16:38:55.500000,-8.438,29.5,263.125,0.987,494.0,-128.0,845.0
2020-01-21 16:38:55.600000,-8.438,29.5,263.125,0.987,494.0,-128.0,845.0
2020-01-21 16:38:55.700000,-8.625,29.125,262.937,0.987,493.0,-129.0,846.0
2020-01-21 16:38:55.800000,-8.625,29.125,262.937,0.987,491.0,-130.0,847.0
2020-01-21 16:38:55.900000,-8.625,29.125,262.937,0.987,491.0,-130.0,847.0
2020-01-21 16:38:56,-8.625,29.062,262.937,0.987,492.0,-129.0,846.0
2020-01-21 16:38:56.100000,-8.625,29.125,263.062,0.987,492.0,-129.0,847.0
2020-01-21 16:38:56.200000,-8.625,29.125,263.062,0.987,492.0,-129.0,847.0
2020-01-21 16:38:56.300000,-8.625,29.187,262.875,0.989,496.0,-130.0,846.0
2020-01-21 16:38:56.400000,-8.625,29.187,262.875,0.987,494.0,-127.0,845.0
2020-01-21 16:38:56.500000,-8.625,29.187,262.875,0.987,494.0,-127.0,845.0
2020-01-21 16:38:56.600000,-8.625,29.187,262.875,0.988,496.0,-129.0,845.0
2020-01-21 16:38:56.700000,-8.5,29.312,262.875,0.987,492.0,-131.0,846.0
2020-01-21 16:38:56.800000,-8.5,29.312,262.875,0.987,492.0,-131.0,846.0
2020-01-21 16:38:56.900000,-8.563,28.812,263.0,0.988,495.0,-130.0,846.0
2020-01-21 16:38:57,-8.625,28.937,262.75,0.988,491.0,-132.0,848.0
2020-01-21 16:38:57.100000,-8.625,28.937,262.75,0.988,491.0,-132.0,848.0
2020-01-21 16:38:57.200000,-8.813,28.937,262.875,0.986,492.0,-129.0,845.0
2020-01-21 16:38:57.300000,-8.688,29.187,262.625,0.988,491.0,-133.0,847.0
2020-01-21 16:38:57.400000,-8.688,29.187,262.625,0.988,491.0,-133.0,847.0
2020-01-21 16:38:57.500000,-8.875,29.0,262.812,0.989,494.0,-132.0,847.0
2020-01-21 16:38:57.600000,-8.875,29.062,262.687,0.987,492.0,-131.0,846.0
2020-01-21 16:38:57.700000,-8.875,29.062,262.687,0.987,492.0,-131.0,846.0
2020-01-21 16:38:57.800000,-8.875,29.062,262.687,0.989,493.0,-133.0,847.0
2020-01-21 16:38:57.900000,-8.875,29.062,262.687,0.985,487.0,-132.0,846.0
2020-01-21 16:38:58,-8.875,29.062,262.687,0.985,487.0,-132.0,846.0
2020-01-21 16:38:58.100000,-8.75,29.187,262.687,0.99,494.0,-133.0,848.0
2020-01-21 16:38:58.200000,-8.938,29.0,262.687,0.985,488.0,-131.0,846.0
2020-01-21 16:38:58.300000,-8.938,29.0,262.687,0.985,488.0,-131.0,846.0
2020-01-21 16:38:58.400000,-8.938,29.125,262.687,0.988,489.0,-135.0,848.0
2020-01-21 16:38:58.500000,-8.813,29.0,262.687,0.991,494.0,-133.0,849.0
2020-01-21 16:38:58.600000,-8.813,29.0,262.687,0.991,494.0,-133.0,849.0
2020-01-21 16:38:58.700000,-9.0,28.937,262.687,0.983,484.0,-133.0,846.0
2020-01-21 16:38:58.800000,-9.0,29.125,262.687,0.99,493.0,-135.0,849.0
2020-01-21 16:38:58.900000,-9.0,29.125,262.687,0.99,493.0,-135.0,849.0
2020-01-21 16:38:59,-9.0,28.937,262.687,0.982,483.0,-131.0,846.0
2020-01-21 16:38:59.100000,-8.875,29.0,262.687,0.992,494.0,-134.0,850.0
2020-01-21 16:38:59.200000,-9.063,29.062,262.687,0.985,488.0,-132.0,846.0
2020-01-21 16:38:59.300000,-9.063,29.062,262.687,0.985,488.0,-132.0,846.0
2020-01-21 16:38:59.400000,-9.063,29.125,262.687,0.989,493.0,-133.0,848.0
2020-01-21 16:38:59.500000,-9.063,29.125,262.687,0.987,495.0,-130.0,845.0
2020-01-21 16:38:59.600000,-9.063,29.125,262.687,0.987,495.0,-130.0,845.0
2020-01-21 16:38:59.700000,-8.938,29.375,262.687,0.982,481.0,-134.0,846.0
2020-01-21 16:38:59.800000,-9.125,29.312,262.75,0.992,493.0,-136.0,851.0
2020-01-21 16:38:59.900000,-9.125,29.312,262.75,0.992,493.0,-136.0,851.0
2020-01-21 16:39:00,-9.125,29.062,262.937,0.987,487.0,-134.0,848.0
2020-01-21 16:39:00.100000,-9.0,29.062,262.875,0.984,481.0,-134.0,849.0
2020-01-21 16:39:00.200000,-9.0,29.062,262.875,0.984,481.0,-134.0,849.0
2020-01-21 16:39:00.300000,-9.188,28.687,262.625,0.992,489.0,-134.0,853.0
2020-01-21 16:39:00.400000,-9.063,29.0,262.625,0.986,483.0,-135.0,850.0
2020-01-21 16:39:00.500000,-9.063,29.0,262.625,0.986,483.0,-135.0,850.0
2020-01-21 16:39:00.600000,-9.125,28.625,262.812,0.984,476.0,-139.0,851.0
2020-01-21 16:39:00.700000,-9.25,28.812,262.625,0.995,496.0,-135.0,852.0
2020-01-21 16:39:00.800000,-9.25,28.812,262.625,0.995,496.0,-135.0,852.0
2020-01-21 16:39:00.900000,-9.25,29.187,262.687,0.983,484.0,-133.0,846.0
2020-01-21 16:39:01,-9.25,29.0,262.687,0.989,491.0,-134.0,849.0
2020-01-21 16:39:01.100000,-9.25,29.0,262.687,0.989,491.0,-134.0,849.0
2020-01-21 16:39:01.200000,-9.25,29.062,262.687,0.994,497.0,-136.0,851.0
2020-01-21 16:39:01.300000,-9.188,29.625,262.812,0.986,495.0,-132.0,843.0
2020-01-21 16:39:01.400000,-9.188,29.625,262.812,0.986,495.0,-132.0,843.0
2020-01-21 16:39:01.500000,-9.188,29.75,262.875,0.989,495.0,-132.0,846.0
2020-01-21 16:39:01.600000,-9.188,29.375,262.875,0.988,491.0,-133.0,848.0
2020-01-21 16:39:01.700000,-9.188,29.375,262.875,0.988,491.0,-133.0,848.0
2020-01-21 16:39:01.800000,-9.125,29.062,262.937,0.985,486.0,-133.0,847.0
2020-01-21 16:39:01.900000,-9.0,29.125,262.937,0.988,492.0,-132.0,847.0
2020-01-21 16:39:02,-9.0,29.125,262.937,0.988,492.0,-132.0,847.0
2020-01-21 16:39:02.100000,-9.188,29.187,262.937,0.986,490.0,-132.0,846.0
2020-01-21 16:39:02.200000,-9.188,29.375,262.937,0.988,493.0,-132.0,847.0
2020-01-21 16:39:02.300000,-9.188,29.375,262.937,0.988,493.0,-132.0,847.0
2020-01-21 16:39:02.400000,-9.063,29.125,262.937,0.987,490.0,-135.0,847.0
2020-01-21 16:39:02.500000,-9.188,29.125,262.937,0.989,489.0,-135.0,849.0
2020-01-21 16:39:02.600000,-9.188,29.125,262.937,0.989,489.0,-135.0,849.0
2020-01-21 16:39:02.700000,-9.063,29.125,262.937,0.985,486.0,-133.0,847.0
2020-01-21 16:39:02.800000,-9.25,28.875,263.0,0.988,488.0,-134.0,849.0
2020-01-21 16:39:02.900000,-9.25,28.875,263.0,0.988,487.0,-135.0,849.0
2020-01-21 16:39:03,-9.25,28.875,263.0,0.988,487.0,-135.0,849.0
2020-01-21 16:39:03.100000,-9.25,28.875,263.0,0.988,489.0,-135.0,848.0
2020-01-21 16:39:03.200000,-9.25,28.875,263.0,0.988,489.0,-134.0,848.0
2020-01-21 16:39:03.300000,-9.25,28.875,263.0,0.988,489.0,-134.0,848.0
2020-01-21 16:39:03.400000,-9.25,28.875,263.0,0.988,489.0,-135.0,848.0
2020-01-21 16:39:03.500000,-9.25,28.812,263.0,0.988,489.0,-135.0,848.0
2020-01-21 16:39:03.600000,-9.25,28.812,263.0,0.988,489.0,-135.0,848.0
2020-01-21 16:39:03.700000,-9.25,28.812,263.0,0.987,490.0,-134.0,847.0
2020-01-21 16:39:03.800000,-9.25,28.875,263.0,0.987,490.0,-134.0,847.0
2020-01-21 16:39:03.900000,-9.25,28.875,263.0,0.987,490.0,-134.0,847.0
2020-01-21 16:39:04,-9.25,28.875,263.0,0.987,490.0,-134.0,847.0
2020-01-21 16:39:04.100000,-9.25,29.0,263.0,0.988,492.0,-134.0,847.0
2020-01-21 16:39:04.200000,-9.25,29.0,263.0,0.988,492.0,-134.0,847.0
2020-01-21 16:39:04.300000,-9.25,28.937,263.0,0.988,489.0,-136.0,848.0
2020-01-21 16:39:04.400000,-9.25,28.75,263.0,0.988,491.0,-134.0,847.0
2020-01-21 16:39:04.500000,-9.25,28.75,263.0,0.988,491.0,-134.0,847.0
2020-01-21 16:39:04.600000,-9.25,28.75,263.0,0.987,489.0,-135.0,847.0
2020-01-21 16:39:04.700000,-9.25,28.75,263.0,0.987,490.0,-135.0,847.0
2020-01-21 16:39:04.800000,-9.25,28.75,263.0,0.987,490.0,-135.0,847.0
2020-01-21 16:39:04.900000,-9.25,28.875,263.0,0.988,489.0,-135.0,848.0
2020-01-21 16:39:05,-9.25,28.687,263.0,0.988,489.0,-134.0,848.0
2020-01-21 16:39:05.100000,-9.25,28.687,263.0,0.988,489.0,-134.0,848.0
2020-01-21 16:39:05.200000,-9.25,28.812,263.0,0.987,489.0,-134.0,847.0
2020-01-21 16:39:05.300000,-9.25,28.562,263.062,0.987,488.0,-134.0,848.0
2020-01-21 16:39:05.400000,-9.25,28.562,263.062,0.987,488.0,-134.0,848.0
2020-01-21 16:39:05.500000,-9.25,28.75,263.062,0.988,489.0,-136.0,848.0
2020-01-21 16:39:05.600000,-9.188,28.562,263.062,0.988,489.0,-134.0,848.0
2020-01-21 16:39:05.700000,-9.188,28.562,263.062,0.988,489.0,-134.0,848.0
2020-01-21 16:39:05.800000,-9.188,28.812,263.062,0.987,488.0,-135.0,848.0
2020-01-21 16:39:05.900000,-9.188,28.625,263.062,0.987,487.0,-135.0,848.0
2020-01-21 16:39:06,-9.188,28.625,263.062,0.987,487.0,-135.0,848.0
2020-01-21 16:39:06.100000,-9.188,28.687,263.062,0.988,489.0,-135.0,848.0
2020-01-21 16:39:06.200000,-9.188,28.875,263.062,0.988,488.0,-135.0,849.0
2020-01-21 16:39:06.300000,-9.188,28.875,263.062,0.988,488.0,-135.0,849.0
2020-01-21 16:39:06.400000,-9.188,28.687,263.125,0.987,488.0,-134.0,848.0
2020-01-21 16:39:06.500000,-9.188,28.75,263.125,0.986,486.0,-136.0,848.0
2020-01-21 16:39:06.600000,-9.188,28.75,263.125,0.986,486.0,-136.0,848.0
2020-01-21 16:39:06.700000,-9.188,28.75,263.125,0.99,490.0,-136.0,850.0
2020-01-21 16:39:06.800000,-9.188,28.75,263.125,0.985,486.0,-133.0,847.0
2020-01-21 16:39:06.900000,-9.188,28.75,263.125,0.985,486.0,-133.0,847.0
2020-01-21 16:39:07,-9.188,28.812,263.125,0.988,490.0,-135.0,848.0
2020-01-21 16:39:07.100000,-9.188,28.812,263.125,0.988,489.0,-134.0,849.0
2020-01-21 16:39:07.200000,-9.188,28.812,263.125,0.988,489.0,-134.0,849.0
2020-01-21 16:39:07.300000,-9.188,28.75,263.125,0.988,489.0,-135.0,848.0
2020-01-21 16:39:07.400000,-9.188,28.75,263.125,0.989,489.0,-135.0,849.0
2020-01-21 16:39:07.500000,-9.188,28.75,263.125,0.989,489.0,-135.0,849.0
2020-01-21 16:39:07.600000,-9.188,28.75,263.125,0.986,489.0,-132.0,847.0
2020-01-21 16:39:07.700000,-9.188,28.875,263.125,0.986,487.0,-135.0,847.0
2020-01-21 16:39:07.800000,-9.188,28.875,263.125,0.986,487.0,-135.0,847.0
2020-01-21 16:39:07.900000,-9.188,28.687,263.125,0.99,491.0,-135.0,849.0
2020-01-21 16:39:08,-9.188,28.812,263.125,0.986,488.0,-134.0,847.0
2020-01-21 16:39:08.100000,-9.188,28.812,263.125,0.986,488.0,-134.0,847.0
2020-01-21 16:39:08.200000,-9.188,28.625,263.125,0.988,489.0,-134.0,848.0
2020-01-21 16:39:08.300000,-9.188,28.625,263.125,0.987,489.0,-133.0,848.0
2020-01-21 16:39:08.400000,-9.188,28.625,263.125,0.987,489.0,-133.0,848.0
2020-01-21 16:39:08.500000,-9.188,28.625,263.125,0.987,488.0,-134.0,848.0
2020-01-21 16:39:08.600000,-9.188,28.625,263.125,0.988,492.0,-132.0,847.0
2020-01-21 16:39:08.700000,-9.188,28.625,263.125,0.988,492.0,-132.0,847.0
2020-01-21 16:39:08.800000,-9.188,28.875,263.125,0.986,488.0,-133.0,847.0
2020-01-21 16:39:08.900000,-9.188,28.75,263.125,0.99,490.0,-135.0,850.0
2020-01-21 16:39:09,-9.188,28.75,263.125,0.99,490.0,-135.0,850.0
2020-01-21 16:39:09.100000,-9.188,28.75,263.187,0.986,488.0,-133.0,847.0
2020-01-21 16:39:09.200000,-9.188,28.812,263.187,0.988,490.0,-134.0,848.0
2020-01-21 16:39:09.300000,-9.188,28.812,263.187,0.988,490.0,-134.0,848.0
2020-01-21 16:39:09.400000,-9.125,28.812,263.187,0.987,488.0,-135.0,848.0
2020-01-21 16:39:09.500000,-9.125,28.875,263.187,0.988,489.0,-134.0,848.0
2020-01-21 16:39:09.600000,-9.125,28.875,263.187,0.988,489.0,-134.0,848.0
2020-01-21 16:39:09.700000,-9.125,28.875,263.187,0.988,491.0,-133.0,848.0
2020-01-21 16:39:09.800000,-9.125,29.0,263.187,0.987,487.0,-136.0,848.0
2020-01-21 16:39:09.900000,-9.125,29.0,263.187,0.987,487.0,-136.0,848.0
2020-01-21 16:39:10,-9.125,28.812,263.187,0.988,492.0,-132.0,847.0
2020-01-21 16:39:10.100000,-9.125,28.75,263.187,0.985,486.0,-135.0,847.0
2020-01-21 16:39:10.200000,-9.125,28.75,263.187,0.985,486.0,-135.0,847.0
2020-01-21 16:39:10.300000,-9.125,28.937,263.187,0.989,492.0,-134.0,848.0
2020-01-21 16:39:10.400000,-9.125,28.75,263.187,0.987,489.0,-134.0,847.0
2020-01-21 16:39:10.500000,-9.125,28.75,263.187,0.987,489.0,-134.0,847.0
2020-01-21 16:39:10.600000,-9.125,28.75,263.187,0.988,490.0,-134.0,848.0
2020-01-21 16:39:10.700000,-9.125,28.75,263.187,0.988,489.0,-134.0,848.0
2020-01-21 16:39:10.800000,-9.125,28.75,263.187,0.988,489.0,-134.0,848.0
2020-01-21 16:39:10.900000,-9.125,28.875,263.187,0.987,490.0,-133.0,847.0
2020-01-21 16:39:11,-9.0,28.687,263.25,0.987,488.0,-135.0,848.0
2020-01-21 16:39:11.100000,-9.0,28.687,263.25,0.987,488.0,-135.0,848.0
2020-01-21 16:39:11.200000,-9.188,28.687,263.25,0.986,489.0,-132.0,846.0
2020-01-21 16:39:11.300000,-9.188,28.812,263.25,0.988,489.0,-136.0,848.0
2020-01-21 16:39:11.400000,-9.188,28.812,263.25,0.988,489.0,-136.0,848.0
2020-01-21 16:39:11.500000,-9.188,28.625,263.25,0.986,491.0,-131.0,846.0
2020-01-21 16:39:11.600000,-9.188,28.875,263.25,0.987,487.0,-137.0,848.0
2020-01-21 16:39:11.700000,-9.188,28.625,263.25,0.988,492.0,-132.0,847.0
2020-01-21 16:39:11.800000,-9.188,28.625,263.25,0.988,492.0,-132.0,847.0
2020-01-21 16:39:11.900000,-9.0,28.937,263.25,0.987,487.0,-136.0,848.0
2020-01-21 16:39:12,-9.188,28.687,263.437,0.988,490.0,-133.0,848.0
2020-01-21 16:39:12.100000,-9.188,28.687,263.437,0.988,490.0,-133.0,848.0
2020-01-21 16:39:12.200000,-9.125,28.812,263.25,0.987,487.0,-135.0,848.0
2020-01-21 16:39:12.300000,-9.125,28.812,263.25,0.987,489.0,-133.0,848.0
2020-01-21 16:39:12.400000,-9.125,28.812,263.25,0.987,489.0,-133.0,848.0
2020-01-21 16:39:12.500000,-9.125,28.875,263.312,0.987,488.0,-135.0,848.0
2020-01-21 16:39:12.600000,-9.125,28.937,263.25,0.988,489.0,-134.0,848.0
2020-01-21 16:39:12.700000,-9.125,28.937,263.25,0.988,489.0,-134.0,848.0
2020-01-21 16:39:12.800000,-9.125,28.937,263.312,0.987,489.0,-135.0,847.0
2020-01-21 16:39:12.900000,-9.125,28.937,263.312,0.987,490.0,-135.0,847.0
2020-01-21 16:39:13,-9.125,28.937,263.312,0.987,490.0,-135.0,847.0
2020-01-21 16:39:13.100000,-9.125,28.875,263.312,0.988,490.0,-134.0,848.0
2020-01-21 16:39:13.200000,-9.125,28.875,263.312,0.987,489.0,-134.0,847.0
2020-01-21 16:39:13.300000,-9.125,28.875,263.312,0.987,489.0,-134.0,847.0
2020-01-21 16:39:13.400000,-9.125,28.812,263.312,0.988,488.0,-135.0,849.0
2020-01-21 16:39:13.500000,-9.125,28.812,263.312,0.988,488.0,-133.0,849.0
2020-01-21 16:39:13.600000,-9.125,28.812,263.312,0.988,488.0,-133.0,849.0
2020-01-21 16:39:13.700000,-9.125,28.937,263.312,0.987,487.0,-133.0,849.0
2020-01-21 16:39:13.800000,-9.125,28.75,263.312,0.987,487.0,-134.0,848.0
2020-01-21 16:39:13.900000,-9.125,28.75,263.312,0.987,487.0,-134.0,848.0
2020-01-21 16:39:14,-9.125,28.75,263.312,0.987,488.0,-134.0,848.0
2020-01-21 16:39:14.100000,-9.125,28.75,263.312,0.988,490.0,-133.0,848.0
2020-01-21 16:39:14.200000,-9.125,28.75,263.312,0.988,490.0,-133.0,848.0
2020-01-21 16:39:14.300000,-9.125,28.875,263.312,0.987,487.0,-134.0,848.0
2020-01-21 16:39:14.400000,-9.125,28.812,263.312,0.988,488.0,-135.0,849.0
2020-01-21 16:39:14.500000,-9.125,28.812,263.312,0.988,488.0,-135.0,849.0
2020-01-21 16:39:14.600000,-9.125,28.625,263.312,0.986,486.0,-134.0,848.0
2020-01-21 16:39:14.700000,-9.125,28.625,263.312,0.988,487.0,-135.0,849.0
2020-01-21 16:39:14.800000,-9.125,28.625,263.312,0.988,487.0,-135.0,849.0
2020-01-21 16:39:14.900000,-9.125,28.625,263.5,0.986,486.0,-133.0,848.0
2020-01-21 16:39:15,-9.0,28.812,263.312,0.989,487.0,-137.0,850.0
2020-01-21 16:39:15.100000,-9.0,28.812,263.312,0.989,487.0,-137.0,850.0
2020-01-21 16:39:15.200000,-9.188,28.625,263.5,0.987,489.0,-133.0,848.0
2020-01-21 16:39:15.300000,-9.188,28.812,263.312,0.988,488.0,-134.0,849.0
2020-01-21 16:39:15.400000,-9.188,28.812,263.312,0.988,488.0,-134.0,849.0
2020-01-21 16:39:15.500000,-9.125,28.625,263.375,0.987,485.0,-135.0,850.0
2020-01-21 16:39:15.600000,-9.125,28.5,263.375,0.989,483.0,-138.0,852.0
2020-01-21 16:39:15.700000,-9.125,28.5,263.375,0.989,483.0,-138.0,852.0
2020-01-21 16:39:15.800000,-9.125,28.375,263.5,0.987,489.0,-133.0,848.0
2020-01-21 16:39:15.900000,-9.125,29.062,263.375,0.987,497.0,-129.0,843.0
2020-01-21 16:39:16,-9.125,29.062,263.375,0.987,497.0,-129.0,843.0
2020-01-21 16:39:16.100000,-9.125,29.312,263.187,0.987,502.0,-128.0,841.0
2020-01-21 16:39:16.200000,-8.938,29.437,263.312,0.988,503.0,-129.0,841.0
2020-01-21 16:39:16.300000,-8.938,29.437,263.312,0.988,503.0,-129.0,841.0
2020-01-21 16:39:16.400000,-9.063,29.5,263.437,0.988,504.0,-130.0,840.0
2020-01-21 16:39:16.500000,-9.0,29.937,263.5,0.989,506.0,-128.0,841.0
2020-01-21 16:39:16.600000,-9.0,29.937,263.5,0.989,506.0,-128.0,841.0
2020-01-21 16:39:16.700000,-8.813,29.625,263.625,0.986,499.0,-128.0,841.0
2020-01-21 16:39:16.800000,-9.0,29.437,263.375,0.987,496.0,-129.0,844.0
2020-01-21 16:39:16.900000,-9.0,29.437,263.375,0.987,496.0,-129.0,844.0
2020-01-21 16:39:17,-9.0,29.062,263.437,0.987,488.0,-132.0,848.0
2020-01-21 16:39:17.100000,-8.875,29.125,263.562,0.987,488.0,-131.0,849.0
2020-01-21 16:39:17.200000,-8.875,29.125,263.562,0.987,488.0,-131.0,849.0
2020-01-21 16:39:17.300000,-8.938,28.812,263.437,0.988,491.0,-133.0,848.0
2020-01-21 16:39:17.400000,-9.0,28.562,263.5,0.988,485.0,-134.0,851.0
2020-01-21 16:39:17.500000,-9.0,28.562,263.5,0.988,485.0,-134.0,851.0
2020-01-21 16:39:17.600000,-9.125,29.0,263.312,0.987,488.0,-133.0,848.0
2020-01-21 16:39:17.700000,-9.188,28.625,263.375,0.989,488.0,-134.0,850.0
2020-01-21 16:39:17.800000,-9.188,28.625,263.375,0.989,488.0,-134.0,850.0
2020-01-21 16:39:17.900000,-9.125,29.187,263.375,0.983,484.0,-133.0,846.0
2020-01-21 16:39:18,-9.188,28.875,263.5,0.994,497.0,-135.0,851.0
2020-01-21 16:39:18.100000,-9.188,28.875,263.5,0.994,497.0,-135.0,851.0
2020-01-21 16:39:18.200000,-9.063,29.437,264.062,0.987,496.0,-131.0,844.0
2020-01-21 16:39:18.300000,-8.813,30.437,264.375,0.991,518.0,-122.0,836.0
2020-01-21 16:39:18.400000,-8.813,30.437,264.375,0.991,518.0,-122.0,836.0
2020-01-21 16:39:18.500000,-8.75,30.375,264.187,0.987,502.0,-125.0,841.0
2020-01-21 16:39:18.600000,-8.688,30.187,264.375,0.987,502.0,-122.0,841.0
2020-01-21 16:39:18.700000,-8.5,30.187,264.375,0.987,499.0,-122.0,843.0
2020-01-21 16:39:18.800000,-8.5,30.0,264.187,0.987,499.0,-122.0,843.0
2020-01-21 16:39:18.900000,-8.625,29.5,263.875,0.987,492.0,-129.0,846.0
2020-01-21 16:39:19,-8.688,29.5,263.875,0.986,487.0,-128.0,848.0
2020-01-21 16:39:19.100000,-8.688,29.25,264.062,0.986,487.0,-128.0,848.0
2020-01-21 16:39:19.200000,-8.688,29.312,263.812,0.99,495.0,-129.0,848.0
2020-01-21 16:39:19.300000,-9.0,29.312,263.812,0.987,485.0,-132.0,850.0
2020-01-21 16:39:19.400000,-9.0,28.875,264.062,0.987,485.0,-132.0,850.0
2020-01-21 16:39:19.500000,-9.0,29.312,263.875,0.986,489.0,-129.0,847.0
2020-01-21 16:39:19.600000,-8.813,29.312,263.875,0.989,488.0,-133.0,850.0
2020-01-21 16:39:19.700000,-8.813,29.062,263.875,0.989,488.0,-133.0,850.0
2020-01-21 16:39:19.800000,-9.0,29.187,264.062,0.986,488.0,-127.0,848.0
2020-01-21 16:39:19.900000,-9.0,29.187,264.062,0.99,494.0,-129.0,849.0
2020-01-21 16:39:20,-9.0,29.312,263.875,0.99,494.0,-129.0,849.0
2020-01-21 16:39:20.100000,-9.0,29.062,263.937,0.984,484.0,-129.0,847.0
2020-01-21 16:39:20.200000,-8.875,29.125,264.062,0.988,489.0,-130.0,849.0
2020-01-21 16:39:20.300000,-8.875,29.125,264.062,0.988,489.0,-130.0,849.0
2020-01-21 16:39:20.400000,-8.938,29.437,263.875,0.985,489.0,-128.0,846.0
2020-01-21 16:39:20.500000,-9.125,29.5,263.875,0.988,492.0,-130.0,847.0
2020-01-21 16:39:20.600000,-9.125,29.5,263.875,0.988,492.0,-130.0,847.0
2020-01-21 16:39:20.700000,-9.063,29.125,264.062,0.988,492.0,-128.0,848.0
2020-01-21 16:39:20.800000,-9.063,29.375,263.875,0.987,491.0,-129.0,847.0
2020-01-21 16:39:20.900000,-9.063,29.375,263.875,0.987,491.0,-129.0,847.0
2020-01-21 16:39:21,-9.063,29.187,263.937,0.986,486.0,-130.0,849.0
2020-01-21 16:39:21.100000,-9.063,29.0,263.937,0.989,488.0,-131.0,851.0
2020-01-21 16:39:21.200000,-9.063,29.0,263.937,0.989,488.0,-131.0,851.0
2020-01-21 16:39:21.300000,-9.063,28.812,264.0,0.987,483.0,-133.0,851.0
2020-01-21 16:39:21.400000,-9.063,28.625,264.0,0.986,478.0,-134.0,853.0
2020-01-21 16:39:21.500000,-9.063,28.625,264.0,0.986,478.0,-134.0,853.0
2020-01-21 16:39:21.600000,-9.063,28.312,264.0,0.988,480.0,-135.0,854.0
2020-01-21 16:39:21.700000,-9.063,28.437,264.0,0.987,476.0,-135.0,855.0
2020-01-21 16:39:21.800000,-9.063,28.437,264.0,0.987,476.0,-135.0,855.0
2020-01-21 16:39:21.900000,-8.938,28.375,264.0,0.988,480.0,-135.0,854.0
2020-01-21 16:39:22,-9.0,28.125,264.0,0.986,473.0,-137.0,855.0
2020-01-21 16:39:22.100000,-9.0,28.125,264.0,0.986,473.0,-137.0,855.0
2020-01-21 16:39:22.200000,-9.188,28.062,264.0,0.988,476.0,-137.0,855.0
2020-01-21 16:39:22.300000,-9.188,28.125,264.0,0.991,479.0,-136.0,857.0
2020-01-21 16:39:22.400000,-9.188,28.125,264.0,0.991,479.0,-136.0,857.0
2020-01-21 16:39:22.500000,-9.188,28.187,264.0,0.986,473.0,-137.0,855.0
2020-01-21 16:39:22.600000,-9.063,28.125,264.0,0.988,472.0,-138.0,858.0
2020-01-21 16:39:22.700000,-9.063,28.125,264.0,0.988,472.0,-138.0,858.0
2020-01-21 16:39:22.800000,-9.25,27.625,264.125,0.989,463.0,-144.0,863.0
2020-01-21 16:39:22.900000,-9.25,27.125,264.062,0.985,453.0,-141.0,864.0
2020-01-21 16:39:23,-9.25,27.125,264.062,0.985,453.0,-141.0,864.0
2020-01-21 16:39:23.100000,-9.188,26.312,263.75,0.993,455.0,-148.0,871.0
2020-01-21 16:39:23.200000,-9.563,25.875,263.437,0.987,443.0,-149.0,870.0
2020-01-21 16:39:23.300000,-9.563,25.875,263.437,0.987,443.0,-149.0,870.0
2020-01-21 16:39:23.400000,-9.375,26.312,263.187,0.99,455.0,-139.0,869.0
2020-01-21 16:39:23.500000,-9.25,26.375,263.187,0.987,448.0,-142.0,868.0
2020-01-21 16:39:23.600000,-9.25,26.375,263.187,0.987,448.0,-142.0,868.0
2020-01-21 16:39:23.700000,-9.25,26.437,263.187,0.987,453.0,-138.0,867.0
2020-01-21 16:39:23.800000,-9.125,26.75,263.187,0.989,454.0,-138.0,868.0
2020-01-21 16:39:23.900000,-9.125,26.75,263.187,0.989,454.0,-138.0,868.0
2020-01-21 16:39:24,-9.188,26.625,263.375,0.985,445.0,-142.0,868.0
2020-01-21 16:39:24.100000,-9.375,26.312,263.25,0.994,453.0,-144.0,873.0
2020-01-21 16:39:24.200000,-9.375,26.312,263.25,0.994,453.0,-144.0,873.0
2020-01-21 16:39:24.300000,-9.25,26.437,263.25,0.987,446.0,-142.0,870.0
2020-01-21 16:39:24.400000,-9.438,26.187,263.312,0.988,441.0,-146.0,873.0
2020-01-21 16:39:24.500000,-9.438,26.187,263.312,0.988,441.0,-146.0,873.0
2020-01-21 16:39:24.600000,-9.5,25.875,263.312,0.989,438.0,-146.0,875.0
2020-01-21 16:39:24.700000,-9.375,25.437,263.437,0.986,431.0,-149.0,875.0
2020-01-21 16:39:24.800000,-9.375,25.437,263.437,0.986,431.0,-149.0,875.0
2020-01-21 16:39:24.900000,-9.563,25.437,263.125,0.991,439.0,-152.0,876.0
2020-01-21 16:39:25,-9.813,25.375,263.0,0.989,437.0,-150.0,875.0
2020-01-21 16:39:25.100000,-9.813,25.375,263.0,0.989,437.0,-150.0,875.0
2020-01-21 16:39:25.200000,-9.813,25.562,262.75,0.99,436.0,-150.0,877.0
2020-01-21 16:39:25.300000,-9.813,25.375,262.75,0.987,432.0,-151.0,875.0
2020-01-21 16:39:25.400000,-9.813,25.375,262.75,0.987,432.0,-151.0,875.0
2020-01-21 16:39:25.500000,-9.813,25.562,263.0,0.99,436.0,-151.0,876.0
2020-01-21 16:39:25.600000,-9.688,25.375,262.937,0.99,435.0,-154.0,876.0
2020-01-21 16:39:25.700000,-9.688,25.375,262.937,0.99,435.0,-154.0,876.0
2020-01-21 16:39:25.800000,-9.875,25.437,262.75,0.988,435.0,-151.0,875.0
2020-01-21 16:39:25.900000,-9.875,25.437,262.75,0.988,435.0,-151.0,875.0
2020-01-21 16:39:26,-9.875,25.437,262.75,0.988,435.0,-151.0,875.0
2020-01-21 16:39:26.100000,-9.875,25.687,262.875,0.99,438.0,-153.0,875.0
2020-01-21 16:39:26.200000,-9.875,25.437,262.687,0.987,440.0,-148.0,872.0
2020-01-21 16:39:26.300000,-9.875,25.437,262.687,0.987,440.0,-148.0,872.0
2020-01-21 16:39:26.400000,-9.813,25.812,262.875,0.988,436.0,-153.0,874.0
2020-01-21 16:39:26.500000,-9.75,25.937,262.625,0.993,452.0,-146.0,873.0
2020-01-21 16:39:26.600000,-9.75,25.937,262.625,0.993,452.0,-146.0,873.0
2020-01-21 16:39:26.700000,-9.625,26.125,262.625,0.984,437.0,-149.0,870.0
2020-01-21 16:39:26.800000,-9.75,26.062,262.625,0.992,454.0,-143.0,871.0
2020-01-21 16:39:26.900000,-9.75,26.062,262.625,0.992,454.0,-143.0,871.0
2020-01-21 16:39:27,-9.563,26.375,262.625,0.985,441.0,-148.0,869.0
2020-01-21 16:39:27.100000,-9.75,26.187,262.75,0.994,453.0,-145.0,873.0
2020-01-21 16:39:27.200000,-9.75,26.187,262.75,0.994,453.0,-145.0,873.0
2020-01-21 16:39:27.300000,-9.563,26.312,262.5,0.985,444.0,-144.0,868.0
2020-01-21 16:39:27.400000,-9.875,25.937,262.75,0.99,440.0,-153.0,874.0
2020-01-21 16:39:27.500000,-9.75,26.25,262.875,0.99,448.0,-147.0,871.0
2020-01-21 16:39:27.600000,-9.75,26.25,262.875,0.99,448.0,-147.0,871.0
2020-01-21 16:39:27.700000,-9.813,25.812,262.687,0.987,435.0,-154.0,873.0
2020-01-21 16:39:27.800000,-10.0,25.937,262.687,0.99,443.0,-150.0,873.0
2020-01-21 16:39:27.900000,-10.0,25.937,262.687,0.99,443.0,-150.0,873.0
2020-01-21 16:39:28,-10.0,25.937,262.687,0.988,441.0,-151.0,872.0
2020-01-21 16:39:28.100000,-10.0,26.187,262.687,0.988,444.0,-149.0,871.0
2020-01-21 16:39:28.200000,-10.0,26.187,262.687,0.988,444.0,-149.0,871.0
2020-01-21 16:39:28.300000,-9.813,25.937,262.875,0.989,443.0,-149.0,872.0
2020-01-21 16:39:28.400000,-10.0,26.312,262.687,0.989,446.0,-149.0,871.0
2020-01-21 16:39:28.500000,-10.0,26.312,262.687,0.989,446.0,-149.0,871.0
2020-01-21 16:39:28.600000,-10.0,26.125,262.875,0.985,443.0,-145.0,868.0
2020-01-21 16:39:28.700000,-9.75,26.5,262.625,0.991,448.0,-148.0,872.0
2020-01-21 16:39:28.800000,-9.75,26.5,262.625,0.991,448.0,-148.0,872.0
2020-01-21 16:39:28.900000,-9.875,26.25,262.687,0.986,437.0,-153.0,871.0
2020-01-21 16:39:29,-9.938,26.25,262.812,0.99,451.0,-144.0,870.0
2020-01-21 16:39:29.100000,-9.938,26.25,262.812,0.99,451.0,-144.0,870.0
2020-01-21 16:39:29.200000,-9.813,26.437,262.625,0.982,444.0,-147.0,864.0
2020-01-21 16:39:29.300000,-10.125,27.375,262.75,1.001,469.0,-151.0,872.0
2020-01-21 16:39:29.400000,-10.125,27.375,262.75,1.001,469.0,-151.0,872.0
2020-01-21 16:39:29.500000,-10.125,27.312,263.062,0.986,465.0,-146.0,858.0
2020-01-21 16:39:29.600000,-10.0,28.312,263.125,0.989,476.0,-140.0,856.0
2020-01-21 16:39:29.700000,-10.0,28.312,263.125,0.989,476.0,-140.0,856.0
2020-01-21 16:39:29.800000,-9.938,28.062,263.375,0.986,473.0,-142.0,854.0
2020-01-21 16:39:29.900000,-9.875,28.437,263.187,0.988,483.0,-134.0,852.0
2020-01-21 16:39:30,-9.875,28.437,263.187,0.988,483.0,-134.0,852.0
2020-01-21 16:39:30.100000,-9.813,28.437,263.187,0.986,475.0,-140.0,853.0
2020-01-21 16:39:30.200000,-9.875,28.187,263.25,0.988,474.0,-143.0,856.0
2020-01-21 16:39:30.300000,-9.875,28.187,263.25,0.988,474.0,-143.0,856.0
2020-01-21 16:39:30.400000,-10.063,28.062,263.312,0.989,472.0,-145.0,857.0
2020-01-21 16:39:30.500000,-10.063,27.75,263.312,0.99,471.0,-145.0,859.0
2020-01-21 16:39:30.600000,-10.063,27.75,263.312,0.99,471.0,-145.0,859.0
2020-01-21 16:39:30.700000,-10.125,27.875,263.312,0.988,473.0,-142.0,856.0
2020-01-21 16:39:30.800000,-10.125,28.0,263.25,0.987,477.0,-141.0,853.0
2020-01-21 16:39:30.900000,-10.125,28.0,263.25,0.987,477.0,-141.0,853.0
2020-01-21 16:39:31,-10.125,28.25,263.25,0.986,479.0,-139.0,851.0
2020-01-21 16:39:31.100000,-10.125,28.25,263.375,0.988,480.0,-140.0,853.0
2020-01-21 16:39:31.200000,-10.125,28.25,263.375,0.988,480.0,-140.0,853.0
2020-01-21 16:39:31.300000,-10.125,28.25,263.187,0.985,480.0,-137.0,850.0
2020-01-21 16:39:31.400000,-10.125,28.437,263.187,0.986,480.0,-139.0,851.0
2020-01-21 16:39:31.500000,-10.125,28.437,263.187,0.986,480.0,-139.0,851.0
2020-01-21 16:39:31.600000,-10.125,28.187,263.25,0.988,481.0,-139.0,852.0
2020-01-21 16:39:31.700000,-10.125,28.312,263.375,0.986,479.0,-139.0,851.0
2020-01-21 16:39:31.800000,-10.125,28.312,263.375,0.986,479.0,-139.0,851.0
2020-01-21 16:39:31.900000,-10.125,28.25,263.187,0.988,480.0,-139.0,853.0
2020-01-21 16:39:32,-10.125,28.187,263.187,0.988,479.0,-141.0,853.0
2020-01-21 16:39:32.100000,-10.125,28.187,263.187,0.988,479.0,-141.0,853.0
2020-01-21 16:39:32.200000,-10.0,28.125,263.187,0.987,476.0,-141.0,854.0
2020-01-21 16:39:32.300000,-10.188,28.125,263.25,0.989,479.0,-143.0,854.0
2020-01-21 16:39:32.400000,-10.188,28.125,263.25,0.989,479.0,-143.0,854.0
2020-01-21 16:39:32.500000,-10.188,27.937,263.375,0.988,478.0,-142.0,853.0
2020-01-21 16:39:32.600000,-10.188,28.062,263.187,0.988,481.0,-141.0,852.0
2020-01-21 16:39:32.700000,-10.188,28.25,263.187,0.988,481.0,-141.0,852.0
2020-01-21 16:39:32.800000,-10.188,28.25,263.187,0.988,481.0,-141.0,852.0
2020-01-21 16:39:32.900000,-10.188,28.125,263.25,0.986,477.0,-141.0,852.0
2020-01-21 16:39:33,-10.188,27.937,263.25,0.987,476.0,-142.0,853.0
2020-01-21 16:39:33.100000,-10.188,27.937,263.25,0.987,476.0,-142.0,853.0
2020-01-21 16:39:33.200000,-10.188,27.937,263.25,0.988,477.0,-143.0,854.0
2020-01-21 16:39:33.300000,-10.188,27.937,263.25,0.989,478.0,-143.0,854.0
2020-01-21 16:39:33.400000,-10.188,27.937,263.25,0.989,478.0,-143.0,854.0
2020-01-21 16:39:33.500000,-10.188,27.937,263.25,0.987,477.0,-142.0,853.0
2020-01-21 16:39:33.600000,-10.188,27.937,263.25,0.988,478.0,-142.0,853.0
2020-01-21 16:39:33.700000,-10.188,27.937,263.25,0.988,478.0,-142.0,853.0
2020-01-21 16:39:33.800000,-10.188,27.937,263.25,0.989,479.0,-142.0,854.0
2020-01-21 16:39:33.900000,-10.188,27.937,263.25,0.988,480.0,-141.0,852.0
2020-01-21 16:39:34,-10.188,27.937,263.25,0.988,480.0,-141.0,852.0
2020-01-21 16:39:34.100000,-10.188,27.937,263.25,0.988,480.0,-141.0,852.0
2020-01-21 16:39:34.200000,-10.188,27.937,263.25,0.987,479.0,-140.0,852.0
2020-01-21 16:39:34.300000,-10.188,27.937,263.25,0.987,479.0,-140.0,852.0
2020-01-21 16:39:34.400000,-10.188,27.937,263.25,0.988,480.0,-141.0,852.0
2020-01-21 16:39:34.500000,-10.188,28.062,263.25,0.987,478.0,-142.0,852.0
2020-01-21 16:39:34.600000,-10.188,28.062,263.25,0.987,478.0,-142.0,852.0
2020-01-21 16:39:34.700000,-10.188,27.875,263.25,0.988,479.0,-142.0,853.0
2020-01-21 16:39:34.800000,-10.188,27.875,263.25,0.988,478.0,-143.0,853.0
2020-01-21 16:39:34.900000,-10.188,27.875,263.25,0.988,478.0,-143.0,853.0
2020-01-21 16:39:35,-10.125,27.937,263.25,0.989,480.0,-142.0,854.0
2020-01-21 16:39:35.100000,-10.063,28.0,263.312,0.987,478.0,-141.0,852.0
2020-01-21 16:39:35.200000,-10.063,28.0,263.312,0.987,478.0,-141.0,852.0
2020-01-21 16:39:35.300000,-10.0,28.125,263.312,0.988,479.0,-142.0,853.0
2020-01-21 16:39:35.400000,-10.0,28.187,263.312,0.988,481.0,-140.0,852.0
2020-01-21 16:39:35.500000,-10.0,28.187,263.312,0.988,481.0,-140.0,852.0
2020-01-21 16:39:35.600000,-9.938,28.25,263.375,0.988,480.0,-141.0,852.0
2020-01-21 16:39:35.700000,-9.875,28.312,263.375,0.989,481.0,-141.0,853.0
2020-01-21 16:39:35.800000,-9.875,28.312,263.375,0.989,481.0,-141.0,853.0
2020-01-21 16:39:35.900000,-9.875,28.312,263.375,0.987,479.0,-141.0,852.0
2020-01-21 16:39:36,-9.875,28.25,263.375,0.986,478.0,-140.0,852.0
2020-01-21 16:39:36.100000,-9.875,28.25,263.375,0.986,478.0,-140.0,852.0
2020-01-21 16:39:36.200000,-9.875,28.25,263.437,0.988,479.0,-141.0,853.0
2020-01-21 16:39:36.300000,-9.875,28.25,263.437,0.988,480.0,-141.0,852.0
2020-01-21 16:39:36.400000,-9.875,28.25,263.437,0.988,480.0,-141.0,852.0
2020-01-21 16:39:36.500000,-9.875,28.375,263.562,0.988,480.0,-142.0,852.0
2020-01-21 16:39:36.600000,-9.875,28.312,263.375,0.987,481.0,-139.0,851.0
2020-01-21 16:39:36.700000,-9.875,28.312,263.375,0.987,481.0,-139.0,851.0
2020-01-21 16:39:36.800000,-9.875,28.437,263.375,0.987,481.0,-140.0,851.0
2020-01-21 16:39:36.900000,-9.688,28.312,263.562,0.986,480.0,-139.0,851.0
2020-01-21 16:39:37,-9.688,28.312,263.562,0.986,480.0,-139.0,851.0
2020-01-21 16:39:37.100000,-9.875,28.187,263.375,0.988,483.0,-140.0,851.0
2020-01-21 16:39:37.200000,-9.875,28.25,263.375,0.988,480.0,-141.0,852.0
2020-01-21 16:39:37.300000,-9.875,28.25,263.375,0.988,480.0,-141.0,852.0
2020-01-21 16:39:37.400000,-9.813,28.125,263.437,0.987,480.0,-140.0,852.0
2020-01-21 16:39:37.500000,-9.688,27.937,263.437,0.987,479.0,-139.0,852.0
2020-01-21 16:39:37.600000,-9.688,27.937,263.437,0.987,479.0,-139.0,852.0
2020-01-21 16:39:37.700000,-9.875,28.062,263.437,0.989,482.0,-142.0,852.0
2020-01-21 16:39:37.800000,-9.813,28.187,263.5,0.987,483.0,-138.0,850.0
2020-01-21 16:39:37.900000,-9.813,28.187,263.5,0.987,483.0,-138.0,850.0
2020-01-21 16:39:38,-9.813,28.312,263.5,0.986,482.0,-139.0,850.0
2020-01-21 16:39:38.100000,-9.75,28.375,263.562,0.987,484.0,-138.0,850.0
2020-01-21 16:39:38.200000,-9.75,28.375,263.562,0.987,484.0,-138.0,850.0
2020-01-21 16:39:38.300000,-9.688,28.562,263.562,0.987,483.0,-138.0,850.0
2020-01-21 16:39:38.400000,-9.688,28.437,263.562,0.988,485.0,-138.0,850.0
2020-01-21 16:39:38.500000,-9.688,28.437,263.562,0.988,485.0,-138.0,850.0
2020-01-21 16:39:38.600000,-9.625,28.5,263.625,0.986,482.0,-139.0,850.0
2020-01-21 16:39:38.700000,-9.625,28.625,263.625,0.988,485.0,-139.0,850.0
2020-01-21 16:39:38.800000,-9.625,28.625,263.625,0.988,485.0,-139.0,850.0
2020-01-21 16:39:38.900000,-9.625,28.437,263.625,0.985,482.0,-138.0,849.0
2020-01-21 16:39:39,-9.625,28.562,263.625,0.987,485.0,-138.0,849.0
2020-01-21 16:39:39.100000,-9.625,28.562,263.625,0.987,485.0,-138.0,849.0
2020-01-21 16:39:39.200000,-9.625,28.375,263.625,0.986,482.0,-139.0,850.0
2020-01-21 16:39:39.300000,-9.625,28.375,263.625,0.988,485.0,-138.0,850.0
2020-01-21 16:39:39.400000,-9.625,28.375,263.625,0.988,485.0,-138.0,850.0
2020-01-21 16:39:39.500000,-9.625,28.375,263.625,0.986,483.0,-139.0,849.0
2020-01-21 16:39:39.600000,-9.625,28.5,263.625,0.988,485.0,-138.0,850.0
2020-01-21 16:39:39.700000,-9.625,28.5,263.625,0.988,485.0,-138.0,850.0
2020-01-21 16:39:39.800000,-9.625,28.25,263.625,0.986,482.0,-139.0,850.0
2020-01-21 16:39:39.900000,-9.625,28.25,263.625,0.988,485.0,-138.0,850.0
2020-01-21 16:39:40,-9.625,28.25,263.625,0.988,485.0,-138.0,850.0
2020-01-21 16:39:40.100000,-9.563,28.25,263.687,0.987,484.0,-138.0,850.0
2020-01-21 16:39:40.200000,-9.563,28.375,263.687,0.987,484.0,-138.0,850.0
2020-01-21 16:39:40.300000,-9.563,28.375,263.687,0.987,484.0,-138.0,850.0
2020-01-21 16:39:40.400000,-9.563,28.437,263.687,0.987,484.0,-138.0,850.0
2020-01-21 16:39:40.500000,-9.5,28.5,263.687,0.987,484.0,-139.0,849.0
2020-01-21 16:39:40.600000,-9.5,28.5,263.687,0.987,484.0,-139.0,849.0
2020-01-21 16:39:40.700000,-9.5,28.5,263.687,0.987,483.0,-138.0,850.0
2020-01-21 16:39:40.800000,-9.5,28.5,263.687,0.988,486.0,-139.0,850.0
2020-01-21 16:39:40.900000,-9.5,28.5,263.687,0.988,486.0,-139.0,850.0
2020-01-21 16:39:41,-9.5,28.625,263.687,0.986,484.0,-138.0,848.0
2020-01-21 16:39:41.100000,-9.5,28.625,263.687,0.988,485.0,-139.0,850.0
2020-01-21 16:39:41.200000,-9.5,28.625,263.687,0.988,485.0,-139.0,850.0
2020-01-21 16:39:41.300000,-9.5,28.625,263.687,0.987,484.0,-139.0,849.0
2020-01-21 16:39:41.400000,-9.5,28.625,263.687,0.987,484.0,-139.0,850.0
2020-01-21 16:39:41.500000,-9.5,28.625,263.687,0.987,484.0,-139.0,850.0
2020-01-21 16:39:41.600000,-9.5,28.625,263.687,0.988,484.0,-139.0,851.0
2020-01-21 16:39:41.700000,-9.5,28.625,263.687,0.987,483.0,-139.0,850.0
2020-01-21 16:39:41.800000,-9.5,28.625,263.687,0.987,483.0,-139.0,850.0
2020-01-21 16:39:41.900000,-9.5,28.625,263.687,0.986,482.0,-139.0,850.0
2020-01-21 16:39:42,-9.5,28.625,263.687,0.987,484.0,-138.0,850.0
2020-01-21 16:39:42.100000,-9.5,28.625,263.687,0.987,484.0,-138.0,850.0
2020-01-21 16:39:42.200000,-9.5,28.625,263.687,0.987,483.0,-139.0,850.0
2020-01-21 16:39:42.300000,-9.5,28.625,263.687,0.987,483.0,-139.0,850.0
2020-01-21 16:39:42.400000,-9.5,28.625,263.687,0.987,483.0,-139.0,850.0
2020-01-21 16:39:42.500000,-9.5,28.75,263.687,0.987,483.0,-139.0,850.0
2020-01-21 16:39:42.600000,-9.5,28.562,263.687,0.986,482.0,-139.0,850.0
2020-01-21 16:39:42.700000,-9.5,28.562,263.687,0.986,482.0,-139.0,850.0
2020-01-21 16:39:42.800000,-9.5,28.75,263.687,0.988,483.0,-139.0,851.0
2020-01-21 16:39:42.900000,-9.5,28.687,263.75,0.988,481.0,-141.0,852.0
2020-01-21 16:39:43,-9.5,28.687,263.75,0.988,481.0,-141.0,852.0
2020-01-21 16:39:43.100000,-9.5,28.5,263.75,0.988,480.0,-142.0,852.0
2020-01-21 16:39:43.200000,-9.5,28.562,263.75,0.988,480.0,-143.0,852.0
2020-01-21 16:39:43.300000,-9.5,28.562,263.75,0.988,480.0,-143.0,852.0
2020-01-21 16:39:43.400000,-9.5,28.375,263.75,0.988,479.0,-144.0,853.0
2020-01-21 16:39:43.500000,-9.5,28.312,263.75,0.986,477.0,-143.0,852.0
2020-01-21 16:39:43.600000,-9.5,28.312,263.75,0.986,477.0,-143.0,852.0
2020-01-21 16:39:43.700000,-9.5,28.5,263.75,0.988,478.0,-143.0,853.0
2020-01-21 16:39:43.800000,-9.5,28.312,263.75,0.988,478.0,-144.0,853.0
2020-01-21 16:39:43.900000,-9.5,28.312,263.75,0.988,478.0,-144.0,853.0
2020-01-21 16:39:44,-9.5,28.437,263.75,0.988,478.0,-143.0,853.0
2020-01-21 16:39:44.100000,-9.5,28.187,263.75,0.989,478.0,-144.0,854.0
2020-01-21 16:39:44.200000,-9.5,28.187,263.75,0.989,478.0,-144.0,854.0
2020-01-21 16:39:44.300000,-9.5,28.375,263.75,0.987,479.0,-142.0,852.0
2020-01-21 16:39:44.400000,-9.5,28.562,263.75,0.988,478.0,-142.0,853.0
2020-01-21 16:39:44.500000,-9.5,28.562,263.75,0.988,478.0,-142.0,853.0
2020-01-21 16:39:44.600000,-9.5,28.375,263.75,0.988,479.0,-141.0,853.0
2020-01-21 16:39:44.700000,-9.5,28.562,263.75,0.988,479.0,-142.0,853.0
2020-01-21 16:39:44.800000,-9.5,28.562,263.75,0.988,479.0,-142.0,853.0
2020-01-21 16:39:44.900000,-9.5,28.375,263.75,0.988,479.0,-141.0,853.0
2020-01-21 16:39:45,-9.5,28.375,263.75,0.986,477.0,-141.0,852.0
2020-01-21 16:39:45.100000,-9.5,28.375,263.75,0.986,477.0,-141.0,852.0
2020-01-21 16:39:45.200000,-9.5,28.562,263.75,0.989,480.0,-143.0,853.0
2020-01-21 16:39:45.300000,-9.5,28.312,263.75,0.987,477.0,-141.0,853.0
2020-01-21 16:39:45.400000,-9.5,28.312,263.75,0.987,477.0,-141.0,853.0
2020-01-21 16:39:45.500000,-9.5,28.375,263.75,0.988,479.0,-142.0,853.0
2020-01-21 16:39:45.600000,-9.5,28.375,263.75,0.988,479.0,-141.0,853.0
2020-01-21 16:39:45.700000,-9.5,28.375,263.75,0.988,479.0,-141.0,853.0
2020-01-21 16:39:45.800000,-9.5,28.375,263.75,0.987,479.0,-141.0,852.0
2020-01-21 16:39:45.900000,-9.5,28.375,263.75,0.987,478.0,-142.0,852.0
2020-01-21 16:39:46,-9.5,28.375,263.75,0.987,478.0,-142.0,852.0
2020-01-21 16:39:46.100000,-9.5,28.375,263.75,0.987,479.0,-142.0,852.0
2020-01-21 16:39:46.200000,-9.5,28.375,263.75,0.987,478.0,-141.0,853.0
2020-01-21 16:39:46.300000,-9.5,28.375,263.75,0.987,478.0,-141.0,853.0
2020-01-21 16:39:46.400000,-9.5,28.375,263.75,0.988,479.0,-141.0,853.0
2020-01-21 16:39:46.500000,-9.5,28.375,263.75,0.987,478.0,-142.0,852.0
2020-01-21 16:39:46.600000,-9.5,28.375,263.75,0.987,478.0,-142.0,852.0
2020-01-21 16:39:46.700000,-9.5,28.375,263.75,0.988,479.0,-141.0,853.0
2020-01-21 16:39:46.800000,-9.5,28.375,263.75,0.988,479.0,-142.0,853.0
2020-01-21 16:39:46.900000,-9.5,28.375,263.75,0.988,479.0,-142.0,853.0
2020-01-21 16:39:47,-9.5,28.375,263.75,0.988,479.0,-142.0,853.0
2020-01-21 16:39:47.100000,-9.5,28.375,263.75,0.987,478.0,-142.0,852.0
2020-01-21 16:39:47.200000,-9.5,28.375,263.75,0.987,478.0,-142.0,852.0
2020-01-21 16:39:47.300000,-9.5,28.375,263.75,0.988,478.0,-142.0,853.0
2020-01-21 16:39:47.400000,-9.5,28.375,263.75,0.987,478.0,-141.0,852.0
2020-01-21 16:39:47.500000,-9.5,28.375,263.75,0.987,478.0,-141.0,852.0
2020-01-21 16:39:47.600000,-9.5,28.5,263.75,0.988,478.0,-142.0,853.0
2020-01-21 16:39:47.700000,-9.5,28.437,263.75,0.988,477.0,-142.0,854.0
2020-01-21 16:39:47.800000,-9.5,28.437,263.75,0.988,477.0,-142.0,854.0
2020-01-21 16:39:47.900000,-9.5,28.312,263.75,0.988,473.0,-144.0,856.0
2020-01-21 16:39:48,-9.313,28.25,263.937,0.989,475.0,-145.0,856.0
2020-01-21 16:39:48.100000,-9.313,28.25,263.937,0.989,475.0,-145.0,856.0
2020-01-21 16:39:48.200000,-9.5,27.937,263.75,0.988,467.0,-148.0,858.0
2020-01-21 16:39:48.300000,-9.5,27.875,263.75,0.988,469.0,-147.0,858.0
2020-01-21 16:39:48.400000,-9.375,27.75,263.75,0.988,465.0,-149.0,860.0
2020-01-21 16:39:48.500000,-9.375,27.75,263.75,0.988,465.0,-149.0,860.0
2020-01-21 16:39:48.600000,-9.438,27.5,263.875,0.989,459.0,-152.0,863.0
2020-01-21 16:39:48.700000,-9.625,26.937,263.625,0.987,452.0,-156.0,864.0
2020-01-21 16:39:48.800000,-9.625,26.937,263.625,0.987,452.0,-156.0,864.0
2020-01-21 16:39:48.900000,-9.813,26.75,263.625,0.989,455.0,-154.0,865.0
2020-01-21 16:39:49,-9.813,27.0,263.75,0.989,458.0,-153.0,864.0
2020-01-21 16:39:49.100000,-9.813,27.0,263.75,0.989,458.0,-153.0,864.0
2020-01-21 16:39:49.200000,-9.813,27.062,263.562,0.988,457.0,-153.0,863.0
2020-01-21 16:39:49.300000,-9.813,27.062,263.562,0.989,458.0,-152.0,864.0
2020-01-21 16:39:49.400000,-9.813,27.062,263.562,0.989,458.0,-152.0,864.0
2020-01-21 16:39:49.500000,-9.813,27.125,263.562,0.988,458.0,-153.0,862.0
2020-01-21 16:39:49.600000,-9.813,27.125,263.562,0.988,460.0,-151.0,862.0
2020-01-21 16:39:49.700000,-9.813,27.125,263.562,0.988,460.0,-151.0,862.0
2020-01-21 16:39:49.800000,-9.813,27.125,263.562,0.988,460.0,-152.0,862.0
2020-01-21 16:39:49.900000,-9.813,27.125,263.562,0.988,460.0,-151.0,862.0
2020-01-21 16:39:50,-9.813,27.125,263.562,0.988,460.0,-151.0,862.0
2020-01-21 16:39:50.100000,-9.813,27.125,263.562,0.988,460.0,-151.0,862.0
2020-01-21 16:39:50.200000,-9.813,27.125,263.562,0.989,461.0,-151.0,862.0
2020-01-21 16:39:50.300000,-9.813,27.125,263.562,0.989,461.0,-151.0,862.0
2020-01-21 16:39:50.400000,-9.813,27.125,263.562,0.988,459.0,-151.0,862.0
2020-01-21 16:39:50.500000,-9.813,27.125,263.562,0.987,460.0,-150.0,861.0
2020-01-21 16:39:50.600000,-9.813,27.125,263.562,0.987,460.0,-150.0,861.0
2020-01-21 16:39:50.700000,-9.813,27.125,263.562,0.987,460.0,-150.0,861.0
2020-01-21 16:39:50.800000,-9.813,27.125,263.562,0.988,460.0,-151.0,862.0
2020-01-21 16:39:50.900000,-9.813,27.125,263.562,0.988,460.0,-151.0,862.0
2020-01-21 16:39:51,-9.813,27.125,263.562,0.989,460.0,-151.0,863.0
2020-01-21 16:39:51.100000,-9.813,27.125,263.562,0.989,461.0,-151.0,862.0
2020-01-21 16:39:51.200000,-9.813,27.125,263.562,0.989,461.0,-151.0,862.0
2020-01-21 16:39:51.300000,-9.813,27.125,263.562,0.988,461.0,-150.0,862.0
2020-01-21 16:39:51.400000,-9.813,27.125,263.562,0.986,459.0,-150.0,860.0
2020-01-21 16:39:51.500000,-9.813,27.125,263.562,0.986,459.0,-150.0,860.0
2020-01-21 16:39:51.600000,-9.813,27.125,263.562,0.989,459.0,-154.0,863.0
2020-01-21 16:39:51.700000,-9.813,27.125,263.75,0.989,462.0,-150.0,862.0
2020-01-21 16:39:51.800000,-9.813,27.125,263.75,0.989,462.0,-150.0,862.0
2020-01-21 16:39:51.900000,-9.813,27.125,263.562,0.987,459.0,-150.0,861.0
2020-01-21 16:39:52,-9.813,27.187,263.562,0.988,461.0,-150.0,862.0
2020-01-21 16:39:52.100000,-9.813,27.187,263.562,0.988,461.0,-150.0,862.0
2020-01-21 16:39:52.200000,-9.813,27.187,263.562,0.987,461.0,-150.0,860.0
2020-01-21 16:39:52.300000,-9.813,27.187,263.562,0.986,458.0,-151.0,861.0
2020-01-21 16:39:52.400000,-9.813,27.187,263.562,0.986,458.0,-151.0,861.0
2020-01-21 16:39:52.500000,-9.813,27.25,263.562,0.989,463.0,-150.0,862.0
2020-01-21 16:39:52.600000,-9.813,27.312,263.562,0.987,460.0,-150.0,861.0
2020-01-21 16:39:52.700000,-9.813,27.312,263.562,0.987,460.0,-150.0,861.0
2020-01-21 16:39:52.800000,-9.813,27.312,263.562,0.988,461.0,-150.0,861.0
2020-01-21 16:39:52.900000,-9.813,27.375,263.562,0.989,462.0,-150.0,862.0
2020-01-21 16:39:53,-9.813,27.375,263.562,0.989,462.0,-150.0,862.0
2020-01-21 16:39:53.100000,-9.813,27.437,263.687,0.987,460.0,-150.0,861.0
2020-01-21 16:39:53.200000,-9.813,27.437,263.5,0.988,463.0,-148.0,861.0
2020-01-21 16:39:53.300000,-9.813,27.437,263.5,0.988,463.0,-148.0,861.0
2020-01-21 16:39:53.400000,-9.813,27.562,263.5,0.987,463.0,-149.0,859.0
2020-01-21 16:39:53.500000,-9.688,27.625,263.5,0.987,465.0,-148.0,859.0
2020-01-21 16:39:53.600000,-9.688,27.625,263.5,0.987,465.0,-148.0,859.0
2020-01-21 16:39:53.700000,-9.875,27.75,263.5,0.988,467.0,-147.0,859.0
2020-01-21 16:39:53.800000,-9.875,27.75,263.625,0.987,467.0,-147.0,858.0
2020-01-21 16:39:53.900000,-9.875,27.75,263.625,0.987,467.0,-147.0,858.0
2020-01-21 16:39:54,-9.875,27.812,263.437,0.988,469.0,-146.0,858.0
2020-01-21 16:39:54.100000,-9.875,27.812,263.437,0.988,466.0,-148.0,859.0
2020-01-21 16:39:54.200000,-9.875,27.812,263.437,0.988,466.0,-148.0,859.0
2020-01-21 16:39:54.300000,-9.875,27.875,263.437,0.987,466.0,-147.0,858.0
2020-01-21 16:39:54.400000,-9.875,27.875,263.437,0.987,467.0,-147.0,858.0
2020-01-21 16:39:54.500000,-9.875,27.875,263.437,0.987,467.0,-147.0,858.0
2020-01-21 16:39:54.600000,-9.875,27.875,263.437,0.987,467.0,-147.0,858.0
2020-01-21 16:39:54.700000,-9.875,27.875,263.437,0.987,468.0,-146.0,857.0
2020-01-21 16:39:54.800000,-9.875,27.875,263.437,0.987,468.0,-146.0,857.0
2020-01-21 16:39:54.900000,-9.875,28.0,263.562,0.987,470.0,-144.0,857.0
2020-01-21 16:39:55,-9.875,28.062,263.562,0.988,471.0,-145.0,857.0
2020-01-21 16:39:55.100000,-9.875,28.062,263.562,0.988,471.0,-145.0,857.0
2020-01-21 16:39:55.200000,-9.875,28.125,263.375,0.988,472.0,-144.0,856.0
2020-01-21 16:39:55.300000,-9.875,28.25,263.375,0.989,470.0,-146.0,858.0
2020-01-21 16:39:55.400000,-9.875,28.25,263.375,0.989,470.0,-146.0,858.0
2020-01-21 16:39:55.500000,-9.875,28.0,263.437,0.988,468.0,-145.0,858.0
2020-01-21 16:39:55.600000,-9.875,28.125,263.437,0.988,468.0,-146.0,858.0
2020-01-21 16:39:55.700000,-9.875,28.125,263.437,0.988,468.0,-146.0,858.0
2020-01-21 16:39:55.800000,-9.875,27.937,263.437,0.986,467.0,-146.0,857.0
2020-01-21 16:39:55.900000,-9.75,28.125,263.562,0.988,471.0,-146.0,857.0
2020-01-21 16:39:56,-9.75,28.125,263.562,0.988,471.0,-146.0,857.0
2020-01-21 16:39:56.100000,-9.75,28.25,263.375,0.987,470.0,-147.0,856.0
2020-01-21 16:39:56.200000,-9.938,28.312,263.375,0.989,473.0,-144.0,857.0
2020-01-21 16:39:56.300000,-9.938,28.312,263.375,0.989,473.0,-144.0,857.0
2020-01-21 16:39:56.400000,-9.938,28.5,263.375,0.987,471.0,-144.0,856.0
2020-01-21 16:39:56.500000,-9.875,28.312,263.375,0.988,470.0,-145.0,857.0
2020-01-21 16:39:56.600000,-9.875,28.312,263.375,0.988,470.0,-145.0,857.0
2020-01-21 16:39:56.700000,-9.875,28.312,263.437,0.987,469.0,-146.0,857.0
2020-01-21 16:39:56.800000,-9.75,28.312,263.562,0.988,470.0,-146.0,857.0
2020-01-21 16:39:56.900000,-9.75,28.312,263.562,0.988,470.0,-146.0,857.0
2020-01-21 16:39:57,-9.938,28.375,263.375,0.987,471.0,-145.0,856.0
2020-01-21 16:39:57.100000,-9.938,28.5,263.375,0.988,472.0,-144.0,856.0
2020-01-21 16:39:57.200000,-9.938,28.5,263.375,0.988,472.0,-144.0,856.0
2020-01-21 16:39:57.300000,-9.938,28.5,263.375,0.988,472.0,-145.0,856.0
2020-01-21 16:39:57.400000,-9.938,28.5,263.375,0.989,473.0,-144.0,857.0
2020-01-21 16:39:57.500000,-9.938,28.5,263.375,0.989,473.0,-144.0,857.0
2020-01-21 16:39:57.600000,-9.938,28.625,263.375,0.986,470.0,-145.0,855.0
2020-01-21 16:39:57.700000,-9.938,28.437,263.375,0.988,471.0,-144.0,857.0
2020-01-21 16:39:57.800000,-9.938,28.437,263.375,0.988,471.0,-144.0,857.0
2020-01-21 16:39:57.900000,-9.938,28.437,263.375,0.987,471.0,-145.0,856.0
2020-01-21 16:39:58,-9.938,28.437,263.375,0.988,472.0,-145.0,856.0
2020-01-21 16:39:58.100000,-9.938,28.437,263.375,0.988,472.0,-145.0,856.0
2020-01-21 16:39:58.200000,-9.938,28.437,263.375,0.989,473.0,-144.0,857.0
2020-01-21 16:39:58.300000,-9.938,28.437,263.375,0.988,471.0,-146.0,857.0
2020-01-21 16:39:58.400000,-9.938,28.437,263.375,0.988,471.0,-146.0,857.0
2020-01-21 16:39:58.500000,-9.938,28.562,263.375,0.989,474.0,-144.0,856.0
2020-01-21 16:39:58.600000,-9.938,28.375,263.375,0.986,470.0,-143.0,855.0
2020-01-21 16:39:58.700000,-9.938,28.375,263.375,0.986,470.0,-143.0,855.0
2020-01-21 16:39:58.800000,-9.938,28.375,263.375,0.989,472.0,-145.0,857.0
2020-01-21 16:39:58.900000,-9.938,28.437,263.375,0.989,474.0,-144.0,857.0
2020-01-21 16:39:59,-9.938,28.437,263.375,0.989,474.0,-144.0,857.0
2020-01-21 16:39:59.100000,-9.938,28.375,263.375,0.986,472.0,-142.0,854.0
2020-01-21 16:39:59.200000,-9.938,28.562,263.375,0.987,469.0,-148.0,856.0
2020-01-21 16:39:59.300000,-9.938,28.562,263.375,0.987,469.0,-148.0,856.0
2020-01-21 16:39:59.400000,-9.75,28.375,263.375,0.99,476.0,-143.0,857.0
2020-01-21 16:39:59.500000,-9.938,28.562,263.375,0.985,469.0,-144.0,855.0
2020-01-21 16:39:59.600000,-9.938,28.562,263.375,0.985,469.0,-144.0,855.0
2020-01-21 16:39:59.700000,-9.75,28.312,263.437,0.99,474.0,-145.0,858.0
2020-01-21 16:39:59.800000,-9.938,28.375,263.437,0.987,471.0,-145.0,856.0
2020-01-21 16:39:59.900000,-9.938,28.375,263.437,0.987,471.0,-145.0,856.0
2020-01-21 16:40:00,-9.938,28.5,263.437,0.988,472.0,-145.0,856.0
2020-01-21 16:40:00.100000,-9.875,28.312,263.437,0.988,472.0,-144.0,857.0
2020-01-21 16:40:00.200000,-9.875,28.312,263.437,0.988,472.0,-144.0,857.0
2020-01-21 16:40:00.300000,-9.875,28.437,263.437,0.987,471.0,-145.0,856.0
2020-01-21 16:40:00.400000,-9.875,28.312,263.437,0.987,472.0,-143.0,856.0
2020-01-21 16:40:00.500000,-9.875,28.312,263.437,0.987,472.0,-143.0,856.0
2020-01-21 16:40:00.600000,-9.875,28.437,263.437,0.988,472.0,-145.0,856.0
2020-01-21 16:40:00.700000,-9.875,28.25,263.437,0.989,472.0,-145.0,857.0
2020-01-21 16:40:00.800000,-9.875,28.25,263.437,0.989,472.0,-145.0,857.0
2020-01-21 16:40:00.900000,-9.875,28.25,263.437,0.988,472.0,-145.0,856.0
2020-01-21 16:40:01,-9.875,28.25,263.437,0.987,471.0,-145.0,856.0
2020-01-21 16:40:01.100000,-9.875,28.25,263.437,0.987,471.0,-145.0,856.0
2020-01-21 16:40:01.200000,-9.875,28.25,263.437,0.988,472.0,-145.0,856.0
2020-01-21 16:40:01.300000,-9.875,28.25,263.437,0.987,471.0,-145.0,856.0
2020-01-21 16:40:01.400000,-9.875,28.25,263.437,0.987,471.0,-145.0,856.0
2020-01-21 16:40:01.500000,-9.875,28.25,263.437,0.988,472.0,-144.0,856.0
2020-01-21 16:40:01.600000,-9.875,28.25,263.437,0.988,473.0,-144.0,856.0
2020-01-21 16:40:01.700000,-9.875,28.25,263.437,0.988,473.0,-144.0,856.0
2020-01-21 16:40:01.800000,-9.875,28.25,263.437,0.988,472.0,-144.0,856.0
2020-01-21 16:40:01.900000,-9.875,28.25,263.437,0.987,472.0,-144.0,855.0
2020-01-21 16:40:02,-9.875,28.25,263.437,0.987,472.0,-144.0,855.0
2020-01-21 16:40:02.100000,-9.875,28.25,263.437,0.988,472.0,-144.0,856.0
2020-01-21 16:40:02.200000,-9.875,28.25,263.437,0.988,471.0,-145.0,857.0
2020-01-21 16:40:02.300000,-9.875,28.25,263.437,0.988,471.0,-145.0,857.0
2020-01-21 16:40:02.400000,-9.875,28.25,263.437,0.988,472.0,-144.0,856.0
2020-01-21 16:40:02.500000,-9.875,28.25,263.437,0.988,472.0,-145.0,856.0
2020-01-21 16:40:02.600000,-9.875,28.25,263.437,0.988,472.0,-144.0,856.0
2020-01-21 16:40:02.700000,-9.875,28.25,263.437,0.988,472.0,-144.0,856.0
2020-01-21 16:40:02.800000,-9.875,28.375,263.437,0.988,472.0,-145.0,856.0
2020-01-21 16:40:02.900000,-9.875,28.375,263.437,0.987,471.0,-144.0,856.0
2020-01-21 16:40:03,-9.875,28.187,263.437,0.987,471.0,-144.0,856.0
2020-01-21 16:40:03.100000,-9.875,28.25,263.437,0.988,472.0,-145.0,856.0
2020-01-21 16:40:03.200000,-9.875,28.25,263.437,0.987,473.0,-144.0,855.0
2020-01-21 16:40:03.300000,-9.875,28.25,263.437,0.987,473.0,-144.0,855.0
2020-01-21 16:40:03.400000,-9.875,28.25,263.437,0.988,474.0,-143.0,855.0
2020-01-21 16:40:03.500000,-9.875,28.25,263.437,0.988,474.0,-144.0,855.0
2020-01-21 16:40:03.600000,-9.875,28.312,263.437,0.988,474.0,-144.0,855.0
2020-01-21 16:40:03.700000,-9.875,28.312,263.437,0.988,474.0,-143.0,855.0
2020-01-21 16:40:03.800000,-9.875,28.312,263.437,0.987,473.0,-144.0,855.0
2020-01-21 16:40:03.900000,-9.875,28.312,263.437,0.987,473.0,-144.0,855.0
2020-01-21 16:40:04,-9.875,28.312,263.437,0.987,473.0,-144.0,855.0
2020-01-21 16:40:04.100000,-9.875,28.312,263.437,0.987,474.0,-143.0,854.0
2020-01-21 16:40:04.200000,-9.875,28.312,263.437,0.987,474.0,-143.0,854.0
2020-01-21 16:40:04.300000,-9.875,28.437,263.437,0.988,474.0,-144.0,855.0
2020-01-21 16:40:04.400000,-9.875,28.437,263.437,0.987,473.0,-143.0,855.0
2020-01-21 16:40:04.500000,-9.875,28.25,263.437,0.987,473.0,-143.0,855.0
2020-01-21 16:40:04.600000,-9.875,28.437,263.437,0.988,475.0,-144.0,855.0
2020-01-21 16:40:04.700000,-9.875,28.437,263.437,0.987,473.0,-144.0,855.0
2020-01-21 16:40:04.800000,-9.875,28.25,263.437,0.987,473.0,-144.0,855.0
2020-01-21 16:40:04.900000,-9.875,28.25,263.437,0.988,474.0,-143.0,856.0
2020-01-21 16:40:05,-9.875,28.25,263.437,0.987,473.0,-143.0,855.0
2020-01-21 16:40:05.100000,-9.875,28.25,263.437,0.987,473.0,-143.0,855.0
2020-01-21 16:40:05.200000,-9.875,28.25,263.437,0.988,474.0,-143.0,855.0
2020-01-21 16:40:05.300000,-9.875,28.25,263.437,0.989,474.0,-144.0,856.0
2020-01-21 16:40:05.400000,-9.875,28.25,263.437,0.989,474.0,-144.0,856.0
2020-01-21 16:40:05.500000,-9.875,28.25,263.437,0.987,474.0,-143.0,854.0
2020-01-21 16:40:05.600000,-9.875,28.25,263.437,0.988,474.0,-143.0,855.0
2020-01-21 16:40:05.700000,-9.875,28.25,263.437,0.988,474.0,-143.0,855.0
2020-01-21 16:40:05.800000,-9.875,28.437,263.437,0.988,475.0,-143.0,855.0
2020-01-21 16:40:05.900000,-9.875,28.437,263.437,0.988,474.0,-144.0,855.0
2020-01-21 16:40:06,-9.875,28.25,263.437,0.988,474.0,-144.0,855.0
2020-01-21 16:40:06.100000,-9.875,28.25,263.437,0.988,473.0,-144.0,856.0
2020-01-21 16:40:06.200000,-9.875,28.25,263.437,0.989,477.0,-142.0,855.0
2020-01-21 16:40:06.300000,-9.875,28.375,263.437,0.989,477.0,-142.0,855.0
2020-01-21 16:40:06.400000,-9.875,28.25,263.562,0.984,466.0,-147.0,855.0
2020-01-21 16:40:06.500000,-9.688,28.25,263.562,0.994,475.0,-148.0,861.0
2020-01-21 16:40:06.600000,-9.688,28.187,263.375,0.994,475.0,-148.0,861.0
2020-01-21 16:40:06.700000,-9.688,27.875,263.562,0.985,466.0,-144.0,856.0
2020-01-21 16:40:06.800000,-9.875,27.875,263.562,0.988,471.0,-146.0,857.0
2020-01-21 16:40:06.900000,-9.875,28.125,263.375,0.988,471.0,-146.0,857.0
2020-01-21 16:40:07,-9.875,27.937,263.375,0.988,471.0,-145.0,857.0
2020-01-21 16:40:07.100000,-9.875,27.937,263.375,0.988,471.0,-145.0,857.0
2020-01-21 16:40:07.200000,-9.875,28.0,263.375,0.988,471.0,-145.0,857.0
2020-01-21 16:40:07.300000,-9.875,28.062,263.375,0.987,468.0,-146.0,857.0
2020-01-21 16:40:07.400000,-9.875,28.062,263.375,0.986,464.0,-147.0,858.0
2020-01-21 16:40:07.500000,-9.875,27.687,263.5,0.986,464.0,-147.0,858.0
2020-01-21 16:40:07.600000,-9.813,27.875,263.437,0.989,467.0,-144.0,860.0
2020-01-21 16:40:07.700000,-9.688,27.875,263.437,0.986,461.0,-152.0,859.0
2020-01-21 16:40:07.800000,-9.688,27.687,263.187,0.986,461.0,-152.0,859.0
2020-01-21 16:40:07.900000,-9.938,27.75,262.937,0.989,479.0,-141.0,854.0
2020-01-21 16:40:08,-9.5,27.75,262.937,0.987,488.0,-135.0,848.0
2020-01-21 16:40:08.100000,-9.5,29.125,262.625,0.987,488.0,-135.0,848.0
2020-01-21 16:40:08.200000,-9.375,29.375,262.625,0.986,499.0,-127.0,842.0
2020-01-21 16:40:08.300000,-8.875,30.375,262.812,0.987,511.0,-113.0,838.0
2020-01-21 16:40:08.400000,-8.875,30.375,262.812,0.987,511.0,-113.0,838.0
2020-01-21 16:40:08.500000,-8.75,30.375,262.937,0.988,511.0,-120.0,838.0
2020-01-21 16:40:08.600000,-8.5,30.937,263.125,0.986,514.0,-108.0,835.0
2020-01-21 16:40:08.700000,-8.5,30.937,263.125,0.986,514.0,-108.0,835.0
2020-01-21 16:40:08.800000,-8.438,30.687,263.25,0.989,513.0,-115.0,838.0
2020-01-21 16:40:08.900000,-8.375,30.937,263.312,0.988,515.0,-110.0,836.0
2020-01-21 16:40:09,-8.375,30.937,263.312,0.988,515.0,-110.0,836.0
2020-01-21 16:40:09.100000,-8.25,30.375,263.5,0.983,496.0,-121.0,841.0
2020-01-21 16:40:09.200000,-8.438,30.0,263.5,0.989,503.0,-119.0,844.0
2020-01-21 16:40:09.300000,-8.438,30.0,263.5,0.989,503.0,-119.0,844.0
2020-01-21 16:40:09.400000,-8.375,30.187,263.5,0.989,507.0,-113.0,842.0
2020-01-21 16:40:09.500000,-8.25,30.375,263.687,0.984,499.0,-118.0,841.0
2020-01-21 16:40:09.600000,-8.25,30.375,263.687,0.984,499.0,-118.0,841.0
2020-01-21 16:40:09.700000,-8.313,30.062,263.687,0.989,502.0,-122.0,844.0
2020-01-21 16:40:09.800000,-8.5,30.437,263.5,0.987,505.0,-115.0,841.0
2020-01-21 16:40:09.900000,-8.5,30.437,263.5,0.987,505.0,-115.0,841.0
2020-01-21 16:40:10,-8.375,30.25,263.625,0.986,500.0,-123.0,842.0
2020-01-21 16:40:10.100000,-8.5,29.875,263.562,0.986,493.0,-127.0,845.0
2020-01-21 16:40:10.200000,-8.5,29.875,263.562,0.986,493.0,-127.0,845.0
2020-01-21 16:40:10.300000,-8.75,29.5,263.375,0.987,494.0,-128.0,846.0
2020-01-21 16:40:10.400000,-8.563,29.625,263.375,0.987,492.0,-129.0,847.0
2020-01-21 16:40:10.500000,-8.563,29.625,263.375,0.987,492.0,-129.0,847.0
2020-01-21 16:40:10.600000,-8.625,29.437,263.437,0.988,489.0,-130.0,849.0
2020-01-21 16:40:10.700000,-8.75,29.062,263.562,0.988,483.0,-134.0,852.0
2020-01-21 16:40:10.800000,-8.75,29.062,263.562,0.988,483.0,-134.0,852.0
2020-01-21 16:40:10.900000,-8.938,28.5,263.375,0.988,473.0,-140.0,857.0
2020-01-21 16:40:11,-9.25,27.562,263.5,0.987,453.0,-150.0,865.0
2020-01-21 16:40:11.100000,-9.25,27.562,263.5,0.987,453.0,-150.0,865.0
2020-01-21 16:40:11.200000,-9.875,25.812,263.375,0.993,433.0,-168.0,878.0
2020-01-21 16:40:11.300000,-10.625,25.125,262.5,0.988,421.0,-175.0,877.0
2020-01-21 16:40:11.400000,-10.625,25.125,262.5,0.988,421.0,-175.0,877.0
2020-01-21 16:40:11.500000,-11.0,24.625,262.5,0.988,412.0,-181.0,880.0
2020-01-21 16:40:11.600000,-11.375,24.125,262.625,0.985,403.0,-186.0,880.0
2020-01-21 16:40:11.700000,-11.25,24.125,262.625,0.995,415.0,-184.0,886.0
2020-01-21 16:40:11.800000,-11.25,24.375,262.562,0.995,415.0,-184.0,886.0
2020-01-21 16:40:11.900000,-11.438,24.437,262.437,0.989,412.0,-180.0,881.0
2020-01-21 16:40:12,-11.438,24.437,262.437,0.989,408.0,-182.0,883.0
2020-01-21 16:40:12.100000,-11.438,24.187,262.437,0.989,408.0,-182.0,883.0
2020-01-21 16:40:12.200000,-11.438,24.312,262.437,0.99,410.0,-180.0,883.0
2020-01-21 16:40:12.300000,-11.438,24.312,262.437,0.99,407.0,-182.0,884.0
2020-01-21 16:40:12.400000,-11.438,24.062,262.437,0.99,407.0,-182.0,884.0
2020-01-21 16:40:12.500000,-11.438,24.062,262.437,0.989,407.0,-181.0,884.0
2020-01-21 16:40:12.600000,-11.438,24.062,262.437,0.99,407.0,-182.0,884.0
2020-01-21 16:40:12.700000,-11.438,24.062,262.437,0.99,407.0,-182.0,884.0
2020-01-21 16:40:12.800000,-11.438,24.062,262.437,0.99,406.0,-181.0,885.0
2020-01-21 16:40:12.900000,-11.438,24.062,262.437,0.989,405.0,-181.0,884.0
2020-01-21 16:40:13,-11.438,24.062,262.437,0.989,405.0,-181.0,884.0
2020-01-21 16:40:13.100000,-11.438,24.062,262.437,0.99,406.0,-181.0,885.0
2020-01-21 16:40:13.200000,-11.438,24.062,262.437,0.989,405.0,-181.0,885.0
2020-01-21 16:40:13.300000,-11.438,24.062,262.437,0.989,405.0,-181.0,885.0
2020-01-21 16:40:13.400000,-11.438,24.062,262.437,0.99,406.0,-181.0,885.0
2020-01-21 16:40:13.500000,-11.438,24.062,262.437,0.989,404.0,-182.0,885.0
2020-01-21 16:40:13.600000,-11.438,24.062,262.437,0.989,404.0,-182.0,885.0
2020-01-21 16:40:13.700000,-11.438,24.062,262.437,0.99,405.0,-181.0,886.0
2020-01-21 16:40:13.800000,-11.438,24.062,262.437,0.989,404.0,-181.0,885.0
2020-01-21 16:40:13.900000,-11.438,24.062,262.437,0.989,404.0,-181.0,885.0
2020-01-21 16:40:14,-11.438,24.062,262.437,0.989,404.0,-181.0,885.0
2020-01-21 16:40:14.100000,-11.438,24.062,262.437,0.99,405.0,-182.0,885.0
2020-01-21 16:40:14.200000,-11.438,24.062,262.437,0.99,405.0,-182.0,885.0
2020-01-21 16:40:14.300000,-11.438,24.062,262.437,0.99,404.0,-181.0,886.0
2020-01-21 16:40:14.400000,-11.438,24.062,262.437,0.989,403.0,-180.0,886.0
2020-01-21 16:40:14.500000,-11.438,24.062,262.437,0.989,403.0,-180.0,886.0
2020-01-21 16:40:14.600000,-11.375,24.062,262.437,0.99,402.0,-180.0,887.0
2020-01-21 16:40:14.700000,-11.313,24.062,262.437,0.99,402.0,-178.0,888.0
2020-01-21 16:40:14.800000,-11.313,24.062,262.437,0.99,402.0,-178.0,888.0
2020-01-21 16:40:14.900000,-11.313,24.062,262.437,0.987,400.0,-176.0,886.0
2020-01-21 16:40:15,-11.313,24.062,262.437,0.989,399.0,-176.0,888.0
2020-01-21 16:40:15.100000,-11.313,24.062,262.437,0.989,399.0,-176.0,888.0
2020-01-21 16:40:15.200000,-11.313,24.062,262.437,0.989,399.0,-175.0,888.0
2020-01-21 16:40:15.300000,-11.313,24.062,262.437,0.989,398.0,-176.0,889.0
2020-01-21 16:40:15.400000,-11.313,24.062,262.437,0.989,398.0,-176.0,889.0
2020-01-21 16:40:15.500000,-11.313,24.062,262.437,0.989,399.0,-174.0,889.0
2020-01-21 16:40:15.600000,-11.313,24.062,262.437,0.99,399.0,-175.0,889.0
2020-01-21 16:40:15.700000,-11.313,24.062,262.437,0.99,399.0,-175.0,889.0
2020-01-21 16:40:15.800000,-11.313,24.062,262.437,0.989,398.0,-175.0,889.0
2020-01-21 16:40:15.900000,-11.313,24.062,262.437,0.989,398.0,-175.0,889.0
2020-01-21 16:40:16,-11.313,24.062,262.437,0.989,398.0,-175.0,889.0
2020-01-21 16:40:16.100000,-11.313,24.062,262.437,0.99,399.0,-175.0,889.0
2020-01-21 16:40:16.200000,-11.313,24.062,262.437,0.991,400.0,-176.0,890.0
2020-01-21 16:40:16.300000,-11.313,24.062,262.437,0.991,400.0,-176.0,890.0
2020-01-21 16:40:16.400000,-11.313,24.062,262.437,0.988,399.0,-174.0,888.0
2020-01-21 16:40:16.500000,-11.313,24.062,262.437,0.989,399.0,-175.0,888.0
2020-01-21 16:40:16.600000,-11.313,24.062,262.437,0.989,399.0,-175.0,888.0
2020-01-21 16:40:16.700000,-11.313,24.062,262.437,0.99,399.0,-175.0,889.0
2020-01-21 16:40:16.800000,-11.313,24.062,262.437,0.99,399.0,-175.0,889.0
2020-01-21 16:40:16.900000,-11.313,24.062,262.437,0.99,399.0,-175.0,889.0
2020-01-21 16:40:17,-11.313,24.062,262.437,0.99,400.0,-175.0,889.0
2020-01-21 16:40:17.100000,-11.313,24.062,262.437,0.989,398.0,-175.0,889.0
2020-01-21 16:40:17.200000,-11.313,24.062,262.437,0.989,398.0,-175.0,889.0
2020-01-21 16:40:17.300000,-11.313,24.062,262.437,0.99,399.0,-175.0,889.0
2020-01-21 16:40:17.400000,-11.313,24.062,262.437,0.99,399.0,-175.0,889.0
2020-01-21 16:40:17.500000,-11.313,24.062,262.437,0.99,399.0,-175.0,889.0
2020-01-21 16:40:17.600000,-11.313,24.062,262.437,0.99,398.0,-175.0,890.0
2020-01-21 16:40:17.700000,-11.313,24.062,262.437,0.991,399.0,-176.0,890.0
2020-01-21 16:40:17.800000,-11.313,24.062,262.437,0.991,399.0,-176.0,890.0
2020-01-21 16:40:17.900000,-11.313,24.062,262.437,0.989,398.0,-174.0,889.0
2020-01-21 16:40:18,-11.313,24.062,262.437,0.989,399.0,-174.0,889.0
2020-01-21 16:40:18.100000,-11.313,24.125,262.437,0.989,399.0,-174.0,889.0
2020-01-21 16:40:18.200000,-11.313,24.125,262.437,0.99,399.0,-175.0,889.0
2020-01-21 16:40:18.300000,-11.313,24.125,262.437,0.99,399.0,-175.0,889.0
2020-01-21 16:40:18.400000,-11.313,24.125,262.437,0.99,399.0,-175.0,889.0
2020-01-21 16:40:18.500000,-11.313,24.125,262.437,0.99,400.0,-176.0,889.0
2020-01-21 16:40:18.600000,-11.188,24.125,262.437,0.989,399.0,-175.0,888.0
2020-01-21 16:40:18.700000,-11.188,24.125,262.437,0.989,399.0,-175.0,888.0
2020-01-21 16:40:18.800000,-11.25,24.187,262.437,0.988,401.0,-176.0,886.0
2020-01-21 16:40:18.900000,-11.5,24.187,262.437,0.99,402.0,-179.0,887.0
2020-01-21 16:40:19,-11.5,24.25,262.437,0.99,402.0,-179.0,887.0
2020-01-21 16:40:19.100000,-11.5,24.25,262.437,0.989,401.0,-178.0,887.0
2020-01-21 16:40:19.200000,-11.5,24.25,262.437,0.99,402.0,-179.0,887.0
2020-01-21 16:40:19.300000,-11.5,24.25,262.437,0.99,402.0,-179.0,887.0
2020-01-21 16:40:19.400000,-11.5,24.25,262.437,0.99,402.0,-180.0,887.0
2020-01-21 16:40:19.500000,-11.5,24.25,262.437,0.989,402.0,-180.0,886.0
2020-01-21 16:40:19.600000,-11.5,24.25,262.437,0.989,402.0,-180.0,886.0
2020-01-21 16:40:19.700000,-11.5,24.25,262.437,0.99,402.0,-179.0,887.0
2020-01-21 16:40:19.800000,-11.5,24.25,262.437,0.99,402.0,-179.0,887.0
2020-01-21 16:40:19.900000,-11.5,24.25,262.437,0.99,402.0,-179.0,887.0
2020-01-21 16:40:20,-11.5,24.25,262.437,0.989,401.0,-180.0,887.0
2020-01-21 16:40:20.100000,-11.5,24.25,262.437,0.989,402.0,-179.0,886.0
2020-01-21 16:40:20.200000,-11.5,24.25,262.437,0.989,402.0,-179.0,886.0
2020-01-21 16:40:20.300000,-11.5,24.25,262.437,0.989,401.0,-179.0,887.0
2020-01-21 16:40:20.400000,-11.5,24.25,262.437,0.99,401.0,-179.0,888.0
2020-01-21 16:40:20.500000,-11.5,24.25,262.437,0.99,401.0,-179.0,888.0
2020-01-21 16:40:20.600000,-11.5,24.25,262.437,0.99,400.0,-178.0,888.0
2020-01-21 16:40:20.700000,-11.5,24.25,262.437,0.989,401.0,-179.0,887.0
2020-01-21 16:40:20.800000,-11.5,24.25,262.437,0.989,401.0,-179.0,887.0
2020-01-21 16:40:20.900000,-11.5,24.25,262.437,0.99,400.0,-178.0,888.0
2020-01-21 16:40:21,-11.5,24.25,262.437,0.99,401.0,-177.0,888.0
2020-01-21 16:40:21.100000,-11.5,24.25,262.437,0.99,401.0,-177.0,888.0
2020-01-21 16:40:21.200000,-11.5,24.25,262.437,0.99,400.0,-178.0,888.0
2020-01-21 16:40:21.300000,-11.375,24.25,262.437,0.986,398.0,-176.0,885.0
2020-01-21 16:40:21.400000,-11.375,24.312,262.562,0.986,398.0,-176.0,885.0
2020-01-21 16:40:21.500000,-11.5,24.562,262.5,0.991,405.0,-180.0,887.0
2020-01-21 16:40:21.600000,-11.75,24.562,262.5,0.991,407.0,-184.0,885.0
2020-01-21 16:40:21.700000,-11.75,24.687,262.312,0.991,407.0,-184.0,885.0
2020-01-21 16:40:21.800000,-12.0,24.687,262.312,0.987,403.0,-184.0,883.0
2020-01-21 16:40:21.900000,-12.188,24.687,262.312,0.984,402.0,-186.0,879.0
2020-01-21 16:40:22,-12.188,24.687,262.437,0.984,402.0,-186.0,879.0
2020-01-21 16:40:22.100000,-12.938,25.0,262.062,0.998,418.0,-209.0,882.0
2020-01-21 16:40:22.200000,-13.5,25.0,262.062,0.994,415.0,-209.0,879.0
2020-01-21 16:40:22.300000,-13.5,25.062,261.75,0.994,415.0,-209.0,879.0
2020-01-21 16:40:22.400000,-13.625,25.187,261.75,0.993,413.0,-206.0,880.0
2020-01-21 16:40:22.500000,-13.375,25.187,261.75,0.99,404.0,-198.0,882.0
2020-01-21 16:40:22.600000,-13.375,24.875,261.875,0.99,404.0,-198.0,882.0
2020-01-21 16:40:22.700000,-12.625,24.187,262.0,0.987,396.0,-190.0,885.0
2020-01-21 16:40:22.800000,-12.5,24.187,262.0,0.989,396.0,-189.0,887.0
2020-01-21 16:40:22.900000,-12.5,24.187,262.0,0.989,396.0,-189.0,887.0
2020-01-21 16:40:23,-12.5,24.187,262.0,0.99,395.0,-189.0,888.0
2020-01-21 16:40:23.100000,-12.438,24.187,262.0,0.989,394.0,-185.0,889.0
2020-01-21 16:40:23.200000,-12.438,24.312,262.0,0.989,394.0,-185.0,889.0
2020-01-21 16:40:23.300000,-12.375,24.125,262.0,0.99,393.0,-184.0,890.0
2020-01-21 16:40:23.400000,-12.313,24.125,262.0,0.989,392.0,-181.0,890.0
2020-01-21 16:40:23.500000,-12.313,24.25,262.0,0.989,392.0,-181.0,890.0
2020-01-21 16:40:23.600000,-12.25,24.062,262.0,0.989,392.0,-180.0,890.0
2020-01-21 16:40:23.700000,-12.188,24.062,262.0,0.989,392.0,-181.0,890.0
2020-01-21 16:40:23.800000,-12.188,24.062,262.0,0.989,392.0,-181.0,890.0
2020-01-21 16:40:23.900000,-12.313,24.187,262.0,0.99,394.0,-181.0,891.0
2020-01-21 16:40:24,-12.438,24.187,262.0,0.99,394.0,-182.0,890.0
2020-01-21 16:40:24.100000,-12.438,24.187,262.0,0.99,394.0,-182.0,890.0
2020-01-21 16:40:24.200000,-12.563,24.25,262.0,0.99,394.0,-183.0,890.0
2020-01-21 16:40:24.300000,-12.688,24.25,262.0,0.99,395.0,-184.0,890.0
2020-01-21 16:40:24.400000,-12.688,24.25,262.0,0.99,395.0,-184.0,890.0
2020-01-21 16:40:24.500000,-12.875,24.25,262.0,0.99,395.0,-184.0,889.0
2020-01-21 16:40:24.600000,-12.875,24.25,262.0,0.989,394.0,-183.0,889.0
2020-01-21 16:40:24.700000,-12.875,24.25,262.0,0.989,394.0,-183.0,889.0
2020-01-21 16:40:24.800000,-12.875,24.25,262.0,0.99,394.0,-184.0,890.0
2020-01-21 16:40:24.900000,-12.875,24.25,262.0,0.99,394.0,-183.0,890.0
2020-01-21 16:40:25,-12.875,24.25,262.0,0.99,394.0,-183.0,890.0
2020-01-21 16:40:25.100000,-12.875,24.25,262.0,0.989,394.0,-183.0,889.0
2020-01-21 16:40:25.200000,-12.875,24.25,262.0,0.99,394.0,-184.0,890.0
2020-01-21 16:40:25.300000,-12.875,24.25,262.0,0.99,394.0,-184.0,890.0
2020-01-21 16:40:25.400000,-12.875,24.25,262.0,0.989,394.0,-183.0,889.0
2020-01-21 16:40:25.500000,-12.875,24.25,262.0,0.99,394.0,-183.0,890.0
2020-01-21 16:40:25.600000,-12.875,24.25,262.0,0.99,394.0,-184.0,890.0
2020-01-21 16:40:25.700000,-12.875,24.25,262.0,0.99,394.0,-184.0,890.0
2020-01-21 16:40:25.800000,-12.875,24.25,262.0,0.989,394.0,-183.0,889.0
2020-01-21 16:40:25.900000,-12.875,24.25,262.0,0.989,393.0,-183.0,890.0
2020-01-21 16:40:26,-12.875,24.25,262.0,0.989,393.0,-183.0,890.0
2020-01-21 16:40:26.100000,-12.875,24.25,262.0,0.989,393.0,-183.0,890.0
2020-01-21 16:40:26.200000,-12.875,24.25,262.0,0.989,394.0,-183.0,889.0
2020-01-21 16:40:26.300000,-12.875,24.25,262.0,0.989,394.0,-183.0,889.0
2020-01-21 16:40:26.400000,-12.875,24.25,262.0,0.989,393.0,-183.0,890.0
2020-01-21 16:40:26.500000,-12.875,24.25,262.0,0.99,394.0,-183.0,890.0
2020-01-21 16:40:26.600000,-12.875,24.25,262.0,0.99,394.0,-183.0,890.0
2020-01-21 16:40:26.700000,-12.875,24.25,262.0,0.989,393.0,-183.0,890.0
2020-01-21 16:40:26.800000,-12.875,24.25,262.0,0.989,393.0,-183.0,889.0
2020-01-21 16:40:26.900000,-12.875,24.25,262.0,0.989,393.0,-183.0,889.0
2020-01-21 16:40:27,-12.875,24.25,262.0,0.99,394.0,-183.0,890.0
2020-01-21 16:40:27.100000,-12.875,24.25,262.0,0.99,394.0,-183.0,890.0
2020-01-21 16:40:27.200000,-12.875,24.25,262.0,0.99,394.0,-183.0,890.0
2020-01-21 16:40:27.300000,-12.875,24.25,262.0,0.99,394.0,-182.0,890.0
2020-01-21 16:40:27.400000,-12.875,24.25,262.0,0.99,394.0,-183.0,890.0
2020-01-21 16:40:27.500000,-12.875,24.25,262.0,0.99,394.0,-183.0,890.0
2020-01-21 16:40:27.600000,-12.875,24.25,262.0,0.989,393.0,-182.0,890.0
2020-01-21 16:40:27.700000,-12.875,24.25,262.0,0.99,394.0,-183.0,890.0
2020-01-21 16:40:27.800000,-12.875,24.25,262.0,0.99,394.0,-183.0,890.0
2020-01-21 16:40:27.900000,-12.875,24.25,262.0,0.99,393.0,-183.0,891.0
2020-01-21 16:40:28,-12.875,24.25,262.0,0.99,394.0,-182.0,890.0
2020-01-21 16:40:28.100000,-12.875,24.25,262.0,0.99,394.0,-182.0,890.0
