starttime,tilt1,tilt2,compass,accelerometer,ax,ay,az
2020-01-19 17:53:13.500000,-5.188,-2.875,304.875,1.0,-50.0,-114.0,990.0
2020-01-19 17:53:13.600000,-5.313,-2.938,304.812,0.997,-50.0,-114.0,992.0
2020-01-19 17:53:13.700000,-5.313,-2.938,304.812,0.997,-62.0,-96.0,992.0
2020-01-19 17:53:13.800000,-6.125,-3.063,304.875,0.998,-62.0,-96.0,992.0
2020-01-19 17:53:13.900000,-6.125,-3.063,304.875,0.998,-52.0,-83.0,997.0
2020-01-19 17:53:14,-5.875,-3.25,305.375,0.996,-68.0,-109.0,991.0
2020-01-19 17:53:14.100000,-6.0,-3.375,305.687,1.005,-63.0,-111.0,991.0
2020-01-19 17:53:14.200000,-6.563,-3.625,305.812,0.999,-63.0,-111.0,996.0
2020-01-19 17:53:14.300000,-6.563,-3.625,305.812,0.999,-75.0,-126.0,996.0
2020-01-19 17:53:14.400000,-7.188,-3.875,306.062,1.006,-77.0,-133.0,996.0
2020-01-19 17:53:14.500000,-7.375,-3.938,305.437,1.007,-77.0,-133.0,984.0
2020-01-19 17:53:14.600000,-7.375,-3.938,305.437,1.007,-65.0,-129.0,1003.0
2020-01-19 17:53:14.700000,-7.563,-4.0,304.75,0.994,-90.0,-121.0,1003.0
2020-01-19 17:53:14.800000,-7.25,-4.125,304.25,1.014,-90.0,-121.0,985.0
2020-01-19 17:53:14.900000,-7.25,-4.125,304.25,1.014,-60.0,-113.0,991.0
2020-01-19 17:53:15,-7.313,-4.25,304.125,0.993,-72.0,-101.0,991.0
2020-01-19 17:53:15.100000,-6.625,-3.938,303.812,0.998,-72.0,-101.0,992.0
2020-01-19 17:53:15.200000,-6.625,-3.938,303.812,0.998,-59.0,-113.0,993.0
2020-01-19 17:53:15.300000,-6.813,-4.063,303.562,1.0,-87.0,-125.0,993.0
2020-01-19 17:53:15.400000,-6.875,-4.25,303.062,1.004,-87.0,-125.0,991.0
2020-01-19 17:53:15.500000,-6.875,-4.25,303.062,1.004,-94.0,-180.0,981.0
2020-01-19 17:53:15.600000,-8.25,-4.438,302.125,1.011,-50.0,-99.0,981.0
2020-01-19 17:53:15.700000,-6.688,-4.063,302.437,0.987,-50.0,-99.0,1009.0
2020-01-19 17:53:15.800000,-6.688,-4.063,302.437,0.987,-76.0,-67.0,995.0
2020-01-19 17:53:15.900000,-5.75,-4.0,303.0,1.014,-70.0,-36.0,995.0
2020-01-19 17:53:16,-4.313,-3.875,303.062,0.998,-70.0,-36.0,989.0
2020-01-19 17:53:16.100000,-4.313,-3.875,303.062,0.998,-58.0,-106.0,991.0
2020-01-19 17:53:16.200000,-3.75,-3.375,302.062,0.996,-65.0,-123.0,991.0
2020-01-19 17:53:16.300000,-6.5,-4.0,301.5,1.0,-65.0,-123.0,997.0
2020-01-19 17:53:16.400000,-6.5,-4.0,301.5,1.0,-65.0,-93.0,996.0
2020-01-19 17:53:16.500000,-6.125,-3.5,301.5,1.003,-69.0,-99.0,996.0
2020-01-19 17:53:16.600000,-6.688,-3.938,301.25,1.003,-69.0,-99.0,986.0
2020-01-19 17:53:16.700000,-6.688,-3.938,301.25,1.003,-52.0,-107.0,996.0
2020-01-19 17:53:16.800000,-6.25,-3.813,300.562,0.993,-64.0,-120.0,996.0
2020-01-19 17:53:16.900000,-6.25,-3.563,299.437,1.005,-64.0,-120.0,992.0
2020-01-19 17:53:17,-6.25,-3.563,299.437,1.005,-58.0,-85.0,992.0
2020-01-19 17:53:17.100000,-5.813,-3.813,298.25,0.997,-58.0,-85.0,988.0
2020-01-19 17:53:17.200000,-5.813,-3.813,298.25,0.997,-74.0,-138.0,992.0
2020-01-19 17:53:17.300000,-5.438,-3.375,296.812,1.0,-62.0,-126.0,986.0
2020-01-19 17:53:17.400000,-7.188,-3.875,296.625,1.001,-70.0,-176.0,986.0
2020-01-19 17:53:17.500000,-7.75,-4.063,296.437,1.004,-70.0,-176.0,998.0
2020-01-19 17:53:17.600000,-7.75,-4.063,296.437,1.004,-70.0,-138.0,985.0
2020-01-19 17:53:17.700000,-9.125,-4.438,296.437,1.009,-54.0,-88.0,985.0
2020-01-19 17:53:17.800000,-6.125,-3.813,296.875,0.99,-54.0,-88.0,991.0
2020-01-19 17:53:17.900000,-6.125,-3.813,296.875,0.99,-70.0,-157.0,993.0
2020-01-19 17:53:18,-6.625,-3.75,296.687,1.005,-53.0,-106.0,993.0
2020-01-19 17:53:18.100000,-7.063,-3.813,296.937,1.0,-53.0,-106.0,992.0
2020-01-19 17:53:18.200000,-7.063,-3.813,296.937,1.0,-65.0,-113.0,992.0
2020-01-19 17:53:18.300000,-6.625,-3.75,297.375,1.0,-44.0,-114.0,992.0
2020-01-19 17:53:18.400000,-6.688,-3.75,297.75,0.999,-44.0,-114.0,993.0
2020-01-19 17:53:18.500000,-6.688,-3.75,297.75,0.999,-66.0,-113.0,989.0
2020-01-19 17:53:18.600000,-6.75,-3.5,298.125,1.001,-57.0,-127.0,989.0
2020-01-19 17:53:18.700000,-7.25,-3.5,298.25,0.998,-57.0,-127.0,994.0
2020-01-19 17:53:18.800000,-7.25,-3.5,298.25,0.998,-55.0,-126.0,991.0
2020-01-19 17:53:18.900000,-7.0,-3.313,298.437,1.003,-60.0,-127.0,991.0
2020-01-19 17:53:19,-7.438,-3.563,298.75,1.0,-60.0,-127.0,992.0
2020-01-19 17:53:19.100000,-7.438,-3.563,298.75,1.0,-58.0,-125.0,996.0
2020-01-19 17:53:19.200000,-7.438,-3.5,299.062,1.001,-58.0,-120.0,996.0
2020-01-19 17:53:19.300000,-7.313,-3.438,299.25,1.004,-58.0,-120.0,988.0
2020-01-19 17:53:19.400000,-7.313,-3.438,299.25,1.004,-40.0,-107.0,992.0
2020-01-19 17:53:19.500000,-7.125,-3.188,299.375,0.994,-48.0,-111.0,992.0
2020-01-19 17:53:19.600000,-6.75,-2.688,299.125,0.999,-48.0,-111.0,989.0
2020-01-19 17:53:19.700000,-6.75,-2.688,299.125,0.999,-46.0,-126.0,995.0
2020-01-19 17:53:19.800000,-6.875,-2.875,299.25,0.998,-50.0,-126.0,995.0
2020-01-19 17:53:19.900000,-6.938,-2.75,299.062,1.004,-50.0,-126.0,996.0
2020-01-19 17:53:20,-6.938,-2.75,299.062,1.004,-37.0,-104.0,992.0
2020-01-19 17:53:20.100000,-6.938,-2.688,299.5,1.002,-46.0,-115.0,992.0
2020-01-19 17:53:20.200000,-6.688,-2.5,299.75,0.999,-46.0,-115.0,993.0
2020-01-19 17:53:20.300000,-6.688,-2.5,299.75,0.999,-47.0,-125.0,990.0
2020-01-19 17:53:20.400000,-7.0,-2.688,299.75,1.001,-38.0,-125.0,990.0
2020-01-19 17:53:20.500000,-7.063,-2.438,299.75,0.998,-38.0,-125.0,978.0
2020-01-19 17:53:20.600000,-7.063,-2.438,299.75,0.998,-29.0,-117.0,982.0
2020-01-19 17:53:20.700000,-8.0,-2.438,299.812,0.985,-36.0,-140.0,982.0
2020-01-19 17:53:20.800000,-8.938,-2.563,299.875,0.992,-36.0,-140.0,1004.0
2020-01-19 17:53:20.900000,-8.938,-2.563,299.875,0.992,-49.0,-142.0,990.0
2020-01-19 17:53:21,-7.688,-2.125,299.5,1.015,-42.0,-137.0,990.0
2020-01-19 17:53:21.100000,-8.0,-2.375,299.625,1.0,-42.0,-137.0,1000.0
2020-01-19 17:53:21.200000,-8.0,-2.375,299.625,1.0,-31.0,-139.0,961.0
2020-01-19 17:53:21.300000,-8.188,-2.25,299.062,1.01,-21.0,-110.0,961.0
2020-01-19 17:53:21.400000,-7.813,-2.063,299.25,0.967,-21.0,-110.0,1015.0
2020-01-19 17:53:21.500000,-7.813,-2.063,299.25,0.967,-42.0,-154.0,990.0
2020-01-19 17:53:21.600000,-8.125,-1.563,299.187,1.027,-38.0,-142.0,990.0
2020-01-19 17:53:21.700000,-8.375,-1.875,299.312,1.0,-38.0,-142.0,973.0
2020-01-19 17:53:21.800000,-8.375,-1.875,299.312,1.0,-21.0,-101.0,1005.0
2020-01-19 17:53:21.900000,-8.313,-1.875,299.187,0.978,-37.0,-167.0,1005.0
2020-01-19 17:53:22,-9.563,-1.813,299.312,1.019,-37.0,-167.0,994.0
2020-01-19 17:53:22.100000,-9.563,-1.813,299.312,1.019,-23.0,-122.0,990.0
2020-01-19 17:53:22.200000,-7.688,-1.313,299.312,1.001,-24.0,-126.0,990.0
2020-01-19 17:53:22.300000,-7.625,-1.438,299.5,0.998,-24.0,-126.0,991.0
2020-01-19 17:53:22.400000,-7.625,-1.438,299.5,0.998,-23.0,-129.0,992.0
2020-01-19 17:53:22.500000,-7.813,-1.438,299.312,0.999,-23.0,-120.0,992.0
2020-01-19 17:53:22.600000,-7.625,-1.375,299.312,0.999,-23.0,-120.0,992.0
2020-01-19 17:53:22.700000,-7.625,-1.375,299.312,0.999,-23.0,-126.0,990.0
2020-01-19 17:53:22.800000,-7.625,-1.375,299.312,1.0,-21.0,-119.0,990.0
2020-01-19 17:53:22.900000,-7.563,-1.375,299.437,0.997,-21.0,-119.0,992.0
2020-01-19 17:53:23,-7.563,-1.375,299.437,0.997,-23.0,-124.0,991.0
2020-01-19 17:53:23.100000,-7.375,-1.375,299.25,0.999,-23.0,-124.0,991.0
2020-01-19 17:53:23.200000,-7.375,-1.375,299.25,0.998,-23.0,-124.0,989.0
2020-01-19 17:53:23.300000,-7.375,-1.375,299.25,0.998,-21.0,-120.0,999.0
2020-01-19 17:53:23.400000,-7.375,-1.25,299.312,0.996,-44.0,-143.0,999.0
2020-01-19 17:53:23.500000,-7.625,-1.375,299.312,1.01,-44.0,-143.0,979.0
2020-01-19 17:53:23.600000,-7.625,-1.375,299.312,1.01,-15.0,-49.0,1007.0
2020-01-19 17:53:23.700000,-4.938,-0.688,299.375,0.98,-7.0,-78.0,1007.0
2020-01-19 17:53:23.800000,-5.375,-1.063,300.375,1.01,-7.0,-78.0,983.0
2020-01-19 17:53:23.900000,-5.375,-1.063,300.375,1.01,-26.0,-78.0,993.0
2020-01-19 17:53:24,-4.5,-0.938,300.5,0.986,-41.0,-121.0,993.0
2020-01-19 17:53:24.100000,-5.75,-1.563,300.25,1.001,-41.0,-121.0,994.0
2020-01-19 17:53:24.200000,-5.75,-1.563,300.25,1.001,-49.0,-88.0,1002.0
2020-01-19 17:53:24.300000,-6.0,-2.063,300.625,0.999,-47.0,-111.0,1002.0
2020-01-19 17:53:24.400000,-6.188,-2.625,301.562,1.009,-47.0,-111.0,991.0
2020-01-19 17:53:24.500000,-6.188,-2.625,301.562,1.009,-61.0,-135.0,983.0
2020-01-19 17:53:24.600000,-7.75,-3.063,301.812,1.002,-64.0,-150.0,983.0
2020-01-19 17:53:24.700000,-8.688,-3.375,301.812,0.996,-64.0,-150.0,992.0
2020-01-19 17:53:24.800000,-8.688,-3.375,301.812,0.996,-63.0,-122.0,993.0
2020-01-19 17:53:24.900000,-7.875,-3.25,302.062,1.001,-58.0,-134.0,993.0
2020-01-19 17:53:25,-7.438,-3.0,302.125,1.003,-58.0,-134.0,992.0
2020-01-19 17:53:25.100000,-7.438,-3.0,302.125,1.003,-64.0,-130.0,993.0
2020-01-19 17:53:25.200000,-7.563,-3.0,301.937,1.002,-59.0,-126.0,993.0
2020-01-19 17:53:25.300000,-8.063,-3.188,302.125,1.002,-59.0,-126.0,990.0
2020-01-19 17:53:25.400000,-8.063,-3.188,302.125,1.002,-59.0,-133.0,996.0
2020-01-19 17:53:25.500000,-7.938,-3.375,302.437,1.0,-74.0,-138.0,996.0
2020-01-19 17:53:25.600000,-7.688,-3.188,302.062,1.008,-74.0,-138.0,985.0
2020-01-19 17:53:25.700000,-7.688,-3.188,302.062,1.008,-49.0,-120.0,997.0
2020-01-19 17:53:25.800000,-7.813,-3.375,302.25,0.993,-74.0,-145.0,997.0
2020-01-19 17:53:25.900000,-7.938,-3.375,302.312,1.01,-74.0,-145.0,988.0
2020-01-19 17:53:26,-7.938,-3.375,302.312,1.01,-50.0,-124.0,1001.0
2020-01-19 17:53:26.100000,-7.75,-3.438,302.312,0.997,-69.0,-127.0,1001.0
2020-01-19 17:53:26.200000,-7.25,-3.188,302.312,1.011,-69.0,-127.0,985.0
2020-01-19 17:53:26.300000,-7.25,-3.188,302.312,1.011,-55.0,-105.0,989.0
2020-01-19 17:53:26.400000,-7.188,-3.25,302.312,0.992,-49.0,-98.0,989.0
2020-01-19 17:53:26.500000,-6.0,-2.938,302.5,0.995,-49.0,-98.0,1002.0
2020-01-19 17:53:26.600000,-6.0,-2.938,302.5,0.995,-77.0,-130.0,989.0
2020-01-19 17:53:26.700000,-7.125,-3.375,302.625,1.013,-56.0,-71.0,989.0
2020-01-19 17:53:26.800000,-5.563,-3.063,302.875,0.993,-56.0,-71.0,995.0
2020-01-19 17:53:26.900000,-5.563,-3.063,302.875,0.993,-41.0,-85.0,994.0
2020-01-19 17:53:27,-4.938,-2.75,302.875,0.999,-50.0,-81.0,994.0
2020-01-19 17:53:27.100000,-5.25,-2.938,302.875,0.998,-50.0,-81.0,997.0
2020-01-19 17:53:27.200000,-5.25,-2.938,302.875,0.998,-51.0,-39.0,995.0
2020-01-19 17:53:27.300000,-4.125,-2.5,302.812,0.999,-49.0,-59.0,995.0
2020-01-19 17:53:27.400000,-2.875,-2.125,302.875,0.997,-49.0,-59.0,982.0
2020-01-19 17:53:27.500000,-2.875,-2.125,302.875,0.997,-33.0,-4.0,1010.0
2020-01-19 17:53:27.600000,-2.875,-2.375,302.687,0.982,-56.0,-67.0,1010.0
2020-01-19 17:53:27.700000,-2.375,-2.25,302.562,1.013,-56.0,-67.0,991.0
2020-01-19 17:53:27.800000,-2.375,-2.25,302.562,1.013,-49.0,-78.0,995.0
2020-01-19 17:53:27.900000,-3.875,-2.375,301.937,0.995,-45.0,-63.0,995.0
2020-01-19 17:53:28,-4.375,-2.688,301.812,0.998,-45.0,-63.0,996.0
2020-01-19 17:53:28.100000,-4.375,-2.688,301.812,0.998,-47.0,-45.0,999.0
2020-01-19 17:53:28.200000,-3.875,-2.438,301.312,0.998,-32.0,-77.0,999.0
2020-01-19 17:53:28.300000,-3.563,-2.438,301.437,1.002,-32.0,-77.0,989.0
2020-01-19 17:53:28.400000,-3.563,-2.438,301.437,1.002,-30.0,-58.0,1027.0
2020-01-19 17:53:28.500000,-4.313,-2.0,300.812,0.991,-37.0,-96.0,1027.0
2020-01-19 17:53:28.600000,-4.688,-1.563,300.25,1.032,-37.0,-96.0,972.0
2020-01-19 17:53:28.700000,-4.688,-1.563,300.25,1.032,47.0,-150.0,950.0
2020-01-19 17:53:28.800000,-7.625,0.312,297.937,0.984,95.0,-190.0,950.0
2020-01-19 17:53:28.900000,-10.625,4.312,295.312,0.973,95.0,-190.0,972.0
2020-01-19 17:53:29,-10.625,4.312,295.312,0.973,104.0,-169.0,972.0
2020-01-19 17:53:29.100000,-10.313,5.75,295.0,0.992,109.0,-176.0,972.0
2020-01-19 17:53:29.200000,-10.25,5.937,295.125,0.993,109.0,-176.0,976.0
2020-01-19 17:53:29.300000,-10.25,5.937,295.125,0.993,101.0,-168.0,975.0
2020-01-19 17:53:29.400000,-10.188,5.875,295.75,0.995,101.0,-165.0,975.0
2020-01-19 17:53:29.500000,-9.938,6.0,297.0,0.994,101.0,-165.0,974.0
2020-01-19 17:53:29.600000,-9.938,6.0,297.0,0.994,102.0,-160.0,977.0
2020-01-19 17:53:29.700000,-9.75,5.937,297.812,0.992,109.0,-150.0,977.0
2020-01-19 17:53:29.800000,-9.438,5.687,298.375,0.994,109.0,-150.0,978.0
2020-01-19 17:53:29.900000,-9.438,5.687,298.375,0.994,95.0,-162.0,968.0
2020-01-19 17:53:30,-9.25,5.375,298.625,0.995,95.0,-157.0,968.0
2020-01-19 17:53:30.100000,-9.313,5.375,298.812,0.985,95.0,-157.0,989.0
2020-01-19 17:53:30.200000,-9.313,5.375,298.812,0.985,82.0,-155.0,977.0
2020-01-19 17:53:30.300000,-9.375,5.5,298.875,1.004,86.0,-152.0,977.0
2020-01-19 17:53:30.400000,-9.125,5.187,299.187,0.992,86.0,-152.0,976.0
2020-01-19 17:53:30.500000,-9.125,5.187,299.187,0.992,87.0,-164.0,970.0
2020-01-19 17:53:30.600000,-9.813,5.0,299.375,0.993,91.0,-170.0,970.0
2020-01-19 17:53:30.700000,-10.063,5.187,299.125,0.988,91.0,-170.0,985.0
2020-01-19 17:53:30.800000,-10.063,5.187,299.125,0.988,76.0,-162.0,980.0
2020-01-19 17:53:30.900000,-9.813,4.937,299.187,1.001,78.0,-160.0,980.0
2020-01-19 17:53:31,-9.563,4.625,299.312,0.996,78.0,-160.0,980.0
2020-01-19 17:53:31.100000,-9.563,4.625,299.312,0.996,79.0,-161.0,977.0
2020-01-19 17:53:31.200000,-9.75,4.625,299.312,0.996,77.0,-166.0,977.0
2020-01-19 17:53:31.300000,-10.0,4.625,299.312,0.993,77.0,-166.0,980.0
2020-01-19 17:53:31.400000,-10.0,4.625,299.312,0.993,80.0,-155.0,975.0
2020-01-19 17:53:31.500000,-9.875,4.687,299.375,0.995,77.0,-164.0,975.0
2020-01-19 17:53:31.600000,-9.688,4.875,299.5,0.991,77.0,-164.0,979.0
2020-01-19 17:53:31.700000,-9.688,4.875,299.5,0.991,65.0,-167.0,1019.0
2020-01-19 17:53:31.800000,-10.375,4.562,299.5,0.995,99.0,-129.0,1019.0
2020-01-19 17:53:31.900000,-9.0,4.5,299.312,1.031,99.0,-129.0,946.0
2020-01-19 17:53:32,-9.0,4.5,299.312,1.031,124.0,-38.0,937.0
2020-01-19 17:53:32.100000,-5.875,6.437,297.687,0.954,174.0,167.0,937.0
2020-01-19 17:53:32.200000,3.812,11.437,299.312,0.967,174.0,167.0,987.0
2020-01-19 17:53:32.300000,3.812,11.437,299.312,0.967,156.0,54.0,930.0
2020-01-19 17:53:32.400000,6.687,12.437,302.375,1.0,270.0,90.0,930.0
2020-01-19 17:53:32.500000,1.125,12.125,302.687,0.972,270.0,90.0,841.0
2020-01-19 17:53:32.600000,1.125,12.125,302.687,0.972,419.0,163.0,853.0
2020-01-19 17:53:32.700000,4.812,16.062,301.125,0.953,401.0,219.0,853.0
2020-01-19 17:53:32.800000,12.375,18.5,298.062,0.967,401.0,219.0,796.0
2020-01-19 17:53:32.900000,12.375,18.5,298.062,0.967,349.0,91.0,764.0
2020-01-19 17:53:33,8.875,17.875,291.562,0.873,90.0,197.0,764.0
2020-01-19 17:53:33.100000,10.5,18.062,287.312,0.794,90.0,197.0,961.0
2020-01-19 17:53:33.200000,10.5,18.062,287.312,0.794,410.0,218.0,988.0
2020-01-19 17:53:33.300000,13.875,17.25,283.5,1.067,317.0,259.0,988.0
2020-01-19 17:53:33.400000,17.937,15.687,280.125,1.069,317.0,259.0,906.0
2020-01-19 17:53:33.500000,17.937,15.687,280.125,1.069,296.0,16.0,903.0
2020-01-19 17:53:33.600000,10.125,15.437,273.375,0.953,248.0,-35.0,903.0
2020-01-19 17:53:33.700000,3.625,15.687,267.125,0.937,248.0,-35.0,1178.0
2020-01-19 17:53:33.800000,3.625,15.687,267.125,0.937,112.0,-269.0,1104.0
2020-01-19 17:53:33.900000,-0.375,12.562,265.312,1.213,44.0,-178.0,1104.0
2020-01-19 17:53:34,-11.813,4.5,268.625,1.119,44.0,-178.0,1165.0
2020-01-19 17:53:34.100000,-11.813,4.5,268.625,1.119,-74.0,-298.0,960.0
2020-01-19 17:53:34.200000,-15.75,0.875,274.312,1.204,-193.0,-174.0,960.0
2020-01-19 17:53:34.300000,-11.25,-3.813,282.437,0.994,-193.0,-174.0,882.0
2020-01-19 17:53:34.400000,-11.25,-3.813,282.437,0.994,-354.0,3.0,948.0
2020-01-19 17:53:34.500000,-6.063,-6.813,291.437,0.95,-478.0,238.0,948.0
2020-01-19 17:53:34.600000,3.062,-10.813,303.25,1.088,-478.0,238.0,724.0
2020-01-19 17:53:34.700000,3.062,-10.813,303.25,1.088,-426.0,345.0,520.0
2020-01-19 17:53:34.800000,10.125,-19.75,316.25,0.908,-445.0,341.0,520.0
2020-01-19 17:53:34.900000,20.25,-31.125,328.562,0.764,-445.0,341.0,722.0
2020-01-19 17:53:35,20.25,-31.125,328.562,0.764,-470.0,232.0,675.0
2020-01-19 17:53:35.100000,22.437,-40.5,345.312,0.892,-716.0,288.0,675.0
2020-01-19 17:53:35.200000,21.812,-47.688,0.312,1.025,-716.0,288.0,468.0
2020-01-19 17:53:35.300000,21.812,-47.688,0.312,1.025,-896.0,306.0,369.0
2020-01-19 17:53:35.400000,26.312,-55.875,11.875,1.056,-946.0,189.0,369.0
2020-01-19 17:53:35.500000,27.5,-63.375,11.937,1.032,-946.0,189.0,350.0
2020-01-19 17:53:35.600000,27.5,-63.375,11.937,1.032,-842.0,152.0,382.0
2020-01-19 17:53:35.700000,25.125,-63.688,17.5,0.924,-975.0,85.0,366.0
2020-01-19 17:53:35.800000,26.0,-64.438,18.0,1.05,-1045.0,106.0,366.0
2020-01-19 17:53:35.900000,20.375,-67.0,21.625,1.112,-1045.0,106.0,356.0
2020-01-19 17:53:36,20.375,-67.0,21.625,1.112,-874.0,34.0,515.0
2020-01-19 17:53:36.100000,20.812,-69.875,23.812,0.944,-927.0,114.0,515.0
2020-01-19 17:53:36.200000,19.687,-67.5,31.812,1.066,-927.0,114.0,677.0
2020-01-19 17:53:36.300000,19.687,-67.5,31.812,1.066,-714.0,211.0,789.0
2020-01-19 17:53:36.400000,21.625,-56.875,28.812,1.006,-757.0,316.0,789.0
2020-01-19 17:53:36.500000,22.75,-43.063,15.5,1.138,-757.0,316.0,678.0
2020-01-19 17:53:36.600000,22.75,-43.063,15.5,1.138,-565.0,404.0,651.0
2020-01-19 17:53:36.700000,22.5,-29.688,359.625,0.97,-359.0,345.0,651.0
2020-01-19 17:53:36.800000,21.625,-18.188,344.562,0.819,-359.0,345.0,846.0
2020-01-19 17:53:36.900000,21.625,-18.188,344.562,0.819,-212.0,157.0,935.0
2020-01-19 17:53:37,20.5,-11.25,332.375,0.886,-195.0,74.0,935.0
2020-01-19 17:53:37.100000,8.812,-12.125,318.75,0.957,-195.0,74.0,912.0
2020-01-19 17:53:37.200000,8.812,-12.125,318.75,0.957,-590.0,220.0,873.0
2020-01-19 17:53:37.300000,2.937,-22.313,305.5,1.108,-532.0,-81.0,873.0
2020-01-19 17:53:37.400000,-8.063,-30.375,293.187,1.025,-532.0,-81.0,759.0
2020-01-19 17:53:37.500000,-8.063,-30.375,293.187,1.025,-468.0,-75.0,754.0
2020-01-19 17:53:37.600000,0.25,-32.688,283.062,0.894,-579.0,547.0,754.0
2020-01-19 17:53:37.700000,14.625,-31.0,273.437,1.096,-579.0,547.0,766.0
2020-01-19 17:53:37.800000,14.625,-31.0,273.437,1.096,-469.0,748.0,551.0
2020-01-19 17:53:37.900000,38.875,-28.563,263.312,1.168,-167.0,703.0,551.0
2020-01-19 17:53:38,43.187,-28.438,255.437,0.908,-167.0,703.0,746.0
2020-01-19 17:53:38.100000,43.187,-28.438,255.437,0.908,-221.0,451.0,707.0
2020-01-19 17:53:38.200000,42.562,-27.188,242.312,0.899,-323.0,629.0,707.0
2020-01-19 17:53:38.300000,34.187,-25.188,232.25,0.999,-323.0,629.0,725.0
2020-01-19 17:53:38.400000,34.187,-25.188,232.25,0.999,-387.0,437.0,827.0
2020-01-19 17:53:38.500000,39.187,-24.063,222.437,0.93,-430.0,379.0,827.0
2020-01-19 17:53:38.600000,37.0,-25.25,217.25,1.006,-430.0,379.0,662.0
2020-01-19 17:53:38.700000,37.0,-25.25,217.25,1.006,-481.0,460.0,760.0
2020-01-19 17:53:38.800000,34.562,-27.938,215.875,0.938,-516.0,274.0,760.0
2020-01-19 17:53:38.900000,33.0,-34.625,215.5,0.958,-516.0,274.0,695.0
2020-01-19 17:53:39,33.0,-34.625,215.5,0.958,-577.0,249.0,729.0
2020-01-19 17:53:39.100000,26.875,-40.688,222.375,0.936,-738.0,181.0,729.0
2020-01-19 17:53:39.200000,25.25,-47.0,226.125,1.053,-738.0,181.0,681.0
2020-01-19 17:53:39.300000,25.25,-47.0,226.125,1.053,-761.0,284.0,487.0
2020-01-19 17:53:39.400000,17.625,-52.0,230.187,1.059,-729.0,320.0,487.0
2020-01-19 17:53:39.500000,22.125,-51.875,233.5,0.933,-729.0,320.0,708.0
2020-01-19 17:53:39.600000,22.125,-51.875,233.5,0.933,-696.0,178.0,575.0
2020-01-19 17:53:39.700000,21.5,-52.188,229.687,1.008,-841.0,87.0,575.0
2020-01-19 17:53:39.800000,6.625,-54.813,230.75,1.022,-841.0,87.0,850.0
2020-01-19 17:53:39.900000,6.625,-54.813,230.75,1.022,-822.0,32.0,637.0
2020-01-19 17:53:40,10.75,-56.813,211.375,1.182,-569.0,-141.0,637.0
2020-01-19 17:53:40.100000,13.187,-38.5,188.5,0.865,-569.0,-141.0,1011.0
2020-01-19 17:53:40.200000,13.187,-38.5,188.5,0.865,-947.0,-575.0,535.0
2020-01-19 17:53:40.300000,3.062,-12.188,159.75,1.499,-1420.0,-1441.0,535.0
2020-01-19 17:53:40.400000,-11.438,-10.75,139.812,2.092,-1420.0,-1441.0,-1340.0
2020-01-19 17:53:40.500000,-11.438,-10.75,139.812,2.092,-2746.0,-172.0,684.0
2020-01-19 17:53:40.600000,-64.938,-49.5,214.562,3.06,-1095.0,733.0,684.0
2020-01-19 17:53:40.700000,-31.5,-24.688,294.125,1.484,-1095.0,733.0,819.0
2020-01-19 17:53:40.800000,-31.5,-24.688,294.125,1.484,-9.0,-167.0,728.0
2020-01-19 17:53:40.900000,-66.25,-17.125,306.937,0.835,-814.0,-93.0,728.0
2020-01-19 17:53:41,-57.688,-30.125,299.062,1.096,-814.0,-93.0,876.0
2020-01-19 17:53:41.100000,-57.688,-30.125,299.062,1.096,-1295.0,-276.0,396.0
2020-01-19 17:53:41.200000,-20.75,-49.0,281.062,1.587,-978.0,63.0,396.0
2020-01-19 17:53:41.300000,8.812,-58.938,254.062,1.057,-978.0,63.0,410.0
2020-01-19 17:53:41.400000,8.812,-58.938,254.062,1.057,-813.0,131.0,491.0
2020-01-19 17:53:41.500000,23.687,-59.313,229.937,0.919,-767.0,315.0,491.0
2020-01-19 17:53:41.600000,31.375,-53.813,230.187,0.963,-767.0,315.0,498.0
2020-01-19 17:53:41.700000,31.375,-53.813,230.187,0.963,-942.0,326.0,735.0
2020-01-19 17:53:41.800000,22.5,-54.188,245.187,1.114,-787.0,170.0,735.0
2020-01-19 17:53:41.900000,24.437,-58.063,261.437,1.09,-787.0,170.0,557.0
2020-01-19 17:53:42,24.437,-58.063,261.437,1.09,-838.0,226.0,436.0
2020-01-19 17:53:42.100000,23.875,-66.375,271.5,1.031,-871.0,252.0,436.0
2020-01-19 17:53:42.200000,21.312,-70.688,282.25,1.006,-871.0,252.0,442.0
2020-01-19 17:53:42.300000,21.312,-70.688,282.25,1.006,-723.0,408.0,550.0
2020-01-19 17:53:42.400000,22.875,-69.75,287.312,0.94,-590.0,281.0,550.0
2020-01-19 17:53:42.500000,24.562,-67.438,274.375,0.854,-590.0,281.0,353.0
2020-01-19 17:53:42.600000,24.562,-67.438,274.375,0.854,-786.0,683.0,797.0
2020-01-19 17:53:42.700000,30.75,-65.875,253.937,1.099,-911.0,1011.0,797.0
2020-01-19 17:53:42.800000,27.812,-60.5,231.375,1.577,-911.0,1011.0,728.0
2020-01-19 17:53:42.900000,27.812,-60.5,231.375,1.577,-603.0,729.0,795.0
2020-01-19 17:53:43,20.937,-56.188,215.375,1.193,-1098.0,96.0,795.0
2020-01-19 17:53:43.100000,24.937,-50.5,203.125,1.358,-1098.0,96.0,712.0
2020-01-19 17:53:43.200000,24.937,-50.5,203.125,1.358,-485.0,-16.0,623.0
2020-01-19 17:53:43.300000,9.312,-37.0,189.0,0.861,-81.0,4.0,623.0
2020-01-19 17:53:43.400000,11.812,-22.25,173.375,0.628,-81.0,4.0,529.0
2020-01-19 17:53:43.500000,11.812,-22.25,173.375,0.628,-662.0,34.0,754.0
2020-01-19 17:53:43.600000,-5.5,-9.75,148.812,0.848,-988.0,-889.0,754.0
2020-01-19 17:53:43.700000,-22.688,3.562,127.75,1.528,-988.0,-889.0,-1.0
2020-01-19 17:53:43.800000,-22.688,3.562,127.75,1.528,-1555.0,-2019.0,-853.0
2020-01-19 17:53:43.900000,-30.625,-9.375,127.375,2.548,-3334.0,-68.0,-853.0
2020-01-19 17:53:44,-42.5,-39.375,203.687,3.442,-3334.0,-68.0,844.0
2020-01-19 17:53:44.100000,-42.5,-39.375,203.687,3.442,-2026.0,323.0,698.0
2020-01-19 17:53:44.200000,-13.625,-25.188,284.187,2.218,-427.0,-140.0,698.0
2020-01-19 17:53:44.300000,-95.563,-32.938,327.25,0.83,-427.0,-140.0,565.0
2020-01-19 17:53:44.400000,-95.563,-32.938,327.25,0.83,-707.0,-229.0,686.0
2020-01-19 17:53:44.500000,-63.563,-48.625,338.375,0.933,-1521.0,-550.0,686.0
2020-01-19 17:53:44.600000,-47.625,-56.625,359.125,1.756,-1521.0,-550.0,368.0
2020-01-19 17:53:44.700000,-47.625,-56.625,359.125,1.756,-677.0,-363.0,359.0
2020-01-19 17:53:44.800000,-33.875,-68.938,10.25,0.851,-935.0,-219.0,359.0
2020-01-19 17:53:44.900000,-22.0,-71.813,17.875,1.025,-935.0,-219.0,455.0
2020-01-19 17:53:45,-22.0,-71.813,17.875,1.025,-1011.0,-84.0,527.0
2020-01-19 17:53:45.100000,-5.0,-69.063,1.312,1.111,-1090.0,44.0,527.0
2020-01-19 17:53:45.200000,5.75,-64.75,337.125,1.211,-1090.0,44.0,333.0
2020-01-19 17:53:45.300000,5.75,-64.75,337.125,1.211,-706.0,18.0,426.0
2020-01-19 17:53:45.400000,6.875,-61.5,328.625,0.78,-863.0,196.0,426.0
2020-01-19 17:53:45.500000,12.687,-54.875,321.875,0.982,-863.0,196.0,622.0
2020-01-19 17:53:45.600000,12.687,-54.875,321.875,0.982,-873.0,464.0,472.0
2020-01-19 17:53:45.700000,26.375,-44.688,316.875,1.168,-421.0,645.0,472.0
2020-01-19 17:53:45.800000,45.5,-39.75,309.437,0.903,-421.0,645.0,569.0
2020-01-19 17:53:45.900000,45.5,-39.75,309.437,0.903,-537.0,490.0,804.0
2020-01-19 17:53:46,51.0,-40.5,296.25,0.923,-634.0,295.0,804.0
2020-01-19 17:53:46.100000,43.75,-43.563,285.75,1.065,-634.0,295.0,564.0
2020-01-19 17:53:46.200000,43.75,-43.563,285.75,1.065,-283.0,284.0,1298.0
2020-01-19 17:53:46.300000,31.625,-46.063,285.25,0.691,-787.0,-263.0,1298.0
2020-01-19 17:53:46.400000,7.5,-49.75,279.5,1.54,-787.0,-263.0,808.0
2020-01-19 17:53:46.500000,7.5,-49.75,279.5,1.54,-204.0,297.0,1355.0
2020-01-19 17:53:46.600000,5.25,-48.125,279.687,0.884,-451.0,821.0,1355.0
2020-01-19 17:53:46.700000,18.375,-36.0,264.625,1.647,-451.0,821.0,667.0
2020-01-19 17:53:46.800000,18.375,-36.0,264.625,1.647,-490.0,188.0,547.0
2020-01-19 17:53:46.900000,15.5,-25.125,253.062,0.848,-454.0,398.0,547.0
2020-01-19 17:53:47,16.562,-18.438,250.625,0.814,-454.0,398.0,1078.0
2020-01-19 17:53:47.100000,16.562,-18.438,250.625,0.814,-181.0,-680.0,940.0
2020-01-19 17:53:47.200000,-6.688,-21.0,251.937,1.287,396.0,-602.0,940.0
2020-01-19 17:53:47.300000,-3.688,-31.75,260.312,1.184,396.0,-602.0,1277.0
2020-01-19 17:53:47.400000,-3.688,-31.75,260.312,1.184,-1712.0,-1504.0,-804.0
2020-01-19 17:53:47.500000,-66.375,-47.75,278.187,2.612,-1399.0,-153.0,-804.0
2020-01-19 17:53:47.600000,-66.063,-26.063,279.625,1.62,-1399.0,-153.0,-355.0
2020-01-19 17:53:47.700000,-66.063,-26.063,279.625,1.62,525.0,-1483.0,150.0
2020-01-19 17:53:47.800000,-91.625,-7.75,264.375,1.612,271.0,-899.0,150.0
2020-01-19 17:53:47.900000,-43.438,-2.625,240.687,0.95,271.0,-899.0,404.0
2020-01-19 17:53:48,-43.438,-2.625,240.687,0.95,-854.0,-550.0,110.0
2020-01-19 17:53:48.100000,-96.438,-18.875,250.0,1.093,-387.0,-1180.0,110.0
2020-01-19 17:53:48.200000,-94.625,-14.188,253.75,1.246,-387.0,-1180.0,645.0
2020-01-19 17:53:48.300000,-94.625,-14.188,253.75,1.246,-578.0,-1047.0,332.0
2020-01-19 17:53:48.400000,-69.938,-20.438,264.0,1.358,-799.0,-443.0,332.0
2020-01-19 17:53:48.500000,-75.688,-18.438,284.437,0.972,-799.0,-443.0,615.0
2020-01-19 17:53:48.600000,-75.688,-18.438,284.437,0.972,-579.0,-734.0,519.0
2020-01-19 17:53:48.700000,-62.438,-15.688,311.0,1.119,-470.0,-1177.0,519.0
2020-01-19 17:53:48.800000,-56.938,-17.938,349.062,1.369,-470.0,-1177.0,334.0
2020-01-19 17:53:48.900000,-56.938,-17.938,349.062,1.369,-369.0,-658.0,542.0
2020-01-19 17:53:49,-50.688,-29.313,22.875,0.825,-309.0,-858.0,542.0
2020-01-19 17:53:49.100000,-59.25,-34.688,55.5,1.06,-309.0,-858.0,597.0
2020-01-19 17:53:49.200000,-59.25,-34.688,55.5,1.06,-371.0,-806.0,526.0
2020-01-19 17:53:49.300000,-52.625,-31.5,71.437,1.069,-682.0,-888.0,526.0
2020-01-19 17:53:49.400000,-54.688,-31.938,75.5,1.237,-682.0,-888.0,117.0
2020-01-19 17:53:49.500000,-54.688,-31.938,75.5,1.237,-958.0,-726.0,306.0
2020-01-19 17:53:49.600000,-54.813,-41.188,74.5,1.207,-473.0,-822.0,306.0
2020-01-19 17:53:49.700000,-59.563,-42.813,91.625,0.996,-473.0,-822.0,210.0
2020-01-19 17:53:49.800000,-59.563,-42.813,91.625,0.996,-432.0,-826.0,345.0
2020-01-19 17:53:49.900000,-63.438,-44.688,107.187,0.955,-706.0,-1014.0,345.0
2020-01-19 17:53:50,-64.188,-47.5,117.062,1.282,-706.0,-1014.0,237.0
2020-01-19 17:53:50.100000,-64.188,-47.5,117.062,1.282,-511.0,-649.0,321.0
2020-01-19 17:53:50.200000,-73.625,-51.125,117.0,0.859,-732.0,-678.0,321.0
2020-01-19 17:53:50.300000,-76.188,-47.875,106.812,1.048,-732.0,-678.0,130.0
2020-01-19 17:53:50.400000,-76.188,-47.875,106.812,1.048,-1085.0,-716.0,286.0
2020-01-19 17:53:50.500000,-66.063,-44.563,98.312,1.306,-278.0,-937.0,286.0
2020-01-19 17:53:50.600000,-59.5,-44.188,98.187,1.018,-278.0,-937.0,292.0
2020-01-19 17:53:50.700000,-59.5,-44.188,98.187,1.018,-904.0,-1019.0,257.0
2020-01-19 17:53:50.800000,-62.5,-47.188,108.812,1.393,-591.0,-411.0,153.0
2020-01-19 17:53:50.900000,-68.75,-47.25,109.25,0.764,-989.0,-727.0,153.0
2020-01-19 17:53:51,-64.0,-41.875,108.5,1.236,-989.0,-727.0,-30.0
2020-01-19 17:53:51.100000,-64.0,-41.875,108.5,1.236,-722.0,-1007.0,227.0
2020-01-19 17:53:51.200000,-67.438,-42.563,112.75,1.239,-317.0,-666.0,227.0
2020-01-19 17:53:51.300000,-43.25,-44.75,106.375,0.771,-317.0,-666.0,361.0
2020-01-19 17:53:51.400000,-43.25,-44.75,106.375,0.771,-1238.0,-1118.0,122.0
2020-01-19 17:53:51.500000,-62.25,-48.188,107.625,1.706,-440.0,-524.0,122.0
2020-01-19 17:53:51.600000,-53.0,-41.5,107.937,0.695,-440.0,-524.0,497.0
2020-01-19 17:53:51.700000,-53.0,-41.5,107.937,0.695,-772.0,-709.0,250.0
2020-01-19 17:53:51.800000,-55.0,-29.063,115.125,1.16,-547.0,-888.0,250.0
2020-01-19 17:53:51.900000,-56.75,-25.313,123.062,1.072,-547.0,-888.0,449.0
2020-01-19 17:53:52,-56.75,-25.313,123.062,1.072,-253.0,-735.0,904.0
2020-01-19 17:53:52.100000,-42.25,-22.563,127.25,0.897,-510.0,-391.0,904.0
2020-01-19 17:53:52.200000,-36.938,-25.188,131.375,1.109,-510.0,-391.0,737.0
2020-01-19 17:53:52.300000,-36.938,-25.188,131.375,1.109,-706.0,-282.0,737.0
2020-01-19 17:53:52.400000,-21.75,-37.375,124.25,1.058,-706.0,-282.0,470.0
2020-01-19 17:53:52.500000,-21.75,-37.375,124.25,1.058,-443.0,261.0,77.0
2020-01-19 17:53:52.600000,21.25,-34.875,113.25,0.696,-812.0,894.0,77.0
2020-01-19 17:53:52.700000,62.5,-36.438,117.75,1.21,-812.0,894.0,92.0
2020-01-19 17:53:52.800000,62.5,-36.438,117.75,1.21,-678.0,706.0,220.0
2020-01-19 17:53:52.900000,89.125,-43.563,133.0,0.983,-415.0,580.0,413.0
2020-01-19 17:53:53,80.187,-42.625,132.187,0.746,-749.0,807.0,413.0
2020-01-19 17:53:53.100000,69.125,-43.0,129.937,1.175,-749.0,807.0,195.0
2020-01-19 17:53:53.200000,69.125,-43.0,129.937,1.175,-769.0,708.0,508.0
2020-01-19 17:53:53.300000,66.312,-41.75,128.187,1.063,-579.0,509.0,508.0
2020-01-19 17:53:53.400000,60.375,-41.0,118.375,0.923,-579.0,509.0,391.0
2020-01-19 17:53:53.500000,60.375,-41.0,118.375,0.923,-603.0,544.0,481.0
2020-01-19 17:53:53.600000,58.312,-36.563,113.812,0.901,-757.0,408.0,481.0
2020-01-19 17:53:53.700000,49.0,-33.875,116.562,0.985,-757.0,408.0,392.0
2020-01-19 17:53:53.800000,49.0,-33.875,116.562,0.985,-341.0,418.0,424.0
2020-01-19 17:53:53.900000,52.687,-33.125,114.875,0.666,-496.0,628.0,424.0
2020-01-19 17:53:54,61.687,-36.438,109.562,0.905,-496.0,628.0,-162.0
2020-01-19 17:53:54.100000,61.687,-36.438,109.562,0.905,-852.0,984.0,-81.0
2020-01-19 17:53:54.200000,82.0,-38.688,114.937,1.311,-652.0,593.0,-81.0
2020-01-19 17:53:54.300000,105.75,-43.188,120.875,0.885,-652.0,593.0,-43.0
2020-01-19 17:53:54.400000,105.75,-43.188,120.875,0.885,-767.0,447.0,34.0
2020-01-19 17:53:54.500000,97.687,-52.125,109.562,0.888,-1102.0,282.0,34.0
2020-01-19 17:53:54.600000,93.562,-62.625,105.5,1.138,-1102.0,282.0,98.0
2020-01-19 17:53:54.700000,93.562,-62.625,105.5,1.138,-922.0,235.0,162.0
2020-01-19 17:53:54.800000,89.0,-70.25,100.0,0.956,-806.0,179.0,162.0
2020-01-19 17:53:54.900000,84.625,-75.875,113.0,0.841,-806.0,179.0,145.0
2020-01-19 17:53:55,84.625,-75.875,113.0,0.841,-1172.0,127.0,67.0
2020-01-19 17:53:55.100000,82.187,-81.188,119.625,1.187,-956.0,-70.0,67.0
2020-01-19 17:53:55.200000,74.812,-81.688,126.312,0.96,-956.0,-70.0,25.0
2020-01-19 17:53:55.300000,74.812,-81.688,126.312,0.96,-1020.0,45.0,166.0
2020-01-19 17:53:55.400000,75.25,-80.688,121.5,1.021,-977.0,38.0,166.0
2020-01-19 17:53:55.500000,67.687,-78.0,129.562,0.991,-977.0,38.0,220.0
2020-01-19 17:53:55.600000,67.687,-78.0,129.562,0.991,-1048.0,-7.0,181.0
2020-01-19 17:53:55.700000,69.687,-78.688,123.687,1.07,-775.0,102.0,181.0
2020-01-19 17:53:55.800000,73.0,-78.125,120.0,0.802,-775.0,102.0,89.0
2020-01-19 17:53:55.900000,73.0,-78.125,120.0,0.802,-1180.0,85.0,77.0
2020-01-19 17:53:56,73.625,-82.313,114.75,1.186,-831.0,157.0,77.0
2020-01-19 17:53:56.100000,3.75,-84.75,140.812,0.849,-831.0,157.0,113.0
2020-01-19 17:53:56.200000,3.75,-84.75,140.812,0.849,-1199.0,-198.0,142.0
2020-01-19 17:53:56.300000,0.312,-87.688,175.437,1.22,-1103.0,-212.0,142.0
2020-01-19 17:53:56.400000,48.75,-80.0,126.25,1.132,-1103.0,-212.0,115.0
2020-01-19 17:53:56.500000,48.75,-80.0,126.25,1.132,-861.0,200.0,146.0
2020-01-19 17:53:56.600000,66.375,-71.063,118.5,0.891,-973.0,340.0,146.0
2020-01-19 17:53:56.700000,80.125,-66.125,119.312,1.04,-973.0,340.0,167.0
2020-01-19 17:53:56.800000,80.125,-66.125,119.312,1.04,-723.0,424.0,-5.0
2020-01-19 17:53:56.900000,91.562,-65.063,117.062,0.854,-884.0,218.0,-5.0
2020-01-19 17:53:57,98.125,-70.813,109.875,0.91,-884.0,218.0,-18.0
2020-01-19 17:53:57.100000,98.125,-70.813,109.875,0.91,-958.0,249.0,153.0
2020-01-19 17:53:57.200000,98.687,-75.625,105.312,0.989,-986.0,4.0,153.0
2020-01-19 17:53:57.300000,62.937,-82.375,130.437,0.997,-986.0,4.0,283.0
2020-01-19 17:53:57.400000,62.937,-82.375,130.437,0.997,-1071.0,-118.0,157.0
2020-01-19 17:53:57.500000,-0.688,-83.813,196.937,1.114,-1233.0,-152.0,157.0
2020-01-19 17:53:57.600000,0.437,-84.75,181.937,1.252,-1233.0,-152.0,159.0
2020-01-19 17:53:57.700000,0.437,-84.75,181.937,1.252,-1092.0,-52.0,15.0
2020-01-19 17:53:57.800000,5.0,-83.75,134.437,1.104,-932.0,-99.0,15.0
2020-01-19 17:53:57.900000,175.5,-85.5,97.062,0.937,-932.0,-99.0,67.0
2020-01-19 17:53:58,175.5,-85.5,97.062,0.937,-976.0,97.0,63.0
2020-01-19 17:53:58.100000,177.187,-86.875,198.437,0.983,-932.0,-21.0,63.0
2020-01-19 17:53:58.200000,2.187,-87.75,208.187,0.934,-932.0,-21.0,182.0
2020-01-19 17:53:58.300000,2.187,-87.75,208.187,0.934,-959.0,113.0,231.0
2020-01-19 17:53:58.400000,60.625,-81.25,161.562,0.982,-608.0,565.0,231.0
2020-01-19 17:53:58.500000,73.312,-67.313,178.937,0.861,-608.0,565.0,166.0
2020-01-19 17:53:58.600000,73.312,-67.313,178.937,0.861,-991.0,579.0,82.0
2020-01-19 17:53:58.700000,84.125,-57.375,178.687,1.159,-539.0,790.0,82.0
2020-01-19 17:53:58.800000,89.125,-40.875,194.187,0.959,-539.0,790.0,303.0
2020-01-19 17:53:58.900000,89.125,-40.875,194.187,0.959,-435.0,646.0,234.0
2020-01-19 17:53:59,79.125,-35.063,206.937,0.835,-628.0,855.0,234.0
2020-01-19 17:53:59.100000,74.25,-30.688,222.937,1.086,-628.0,855.0,527.0
2020-01-19 17:53:59.200000,74.25,-30.688,222.937,1.086,-530.0,421.0,531.0
2020-01-19 17:53:59.300000,57.562,-30.875,237.812,0.857,-298.0,542.0,531.0
2020-01-19 17:53:59.400000,51.0,-27.063,254.937,0.815,-298.0,542.0,552.0
2020-01-19 17:53:59.500000,51.0,-27.063,254.937,0.815,-609.0,720.0,193.0
2020-01-19 17:53:59.600000,50.187,-27.563,263.375,1.092,-568.0,774.0,193.0
2020-01-19 17:53:59.700000,58.375,-30.75,273.562,0.979,-568.0,774.0,213.0
2020-01-19 17:53:59.800000,58.375,-30.75,273.562,0.979,-514.0,604.0,-80.0
2020-01-19 17:53:59.900000,73.687,-34.938,280.25,0.821,-807.0,882.0,-80.0
2020-01-19 17:54:00,81.125,-37.0,284.0,1.198,-807.0,882.0,-37.0
2020-01-19 17:54:00.100000,81.125,-37.0,284.0,1.198,-693.0,702.0,-169.0
2020-01-19 17:54:00.200000,88.0,-37.625,290.062,0.987,-437.0,563.0,-169.0
2020-01-19 17:54:00.300000,93.75,-31.875,293.312,0.732,-437.0,563.0,-216.0
2020-01-19 17:54:00.400000,93.75,-31.875,293.312,0.732,-242.0,804.0,-426.0
2020-01-19 17:54:00.500000,99.562,-25.0,301.437,0.866,-350.0,946.0,-426.0
2020-01-19 17:54:00.600000,108.687,-17.125,307.75,1.094,-350.0,946.0,-455.0
2020-01-19 17:54:00.700000,108.687,-17.125,307.75,1.094,-364.0,881.0,-439.0
2020-01-19 17:54:00.800000,112.375,-12.063,306.937,1.056,-163.0,677.0,-439.0
2020-01-19 17:54:00.900000,111.562,-8.25,301.937,0.823,-163.0,677.0,-438.0
2020-01-19 17:54:01,111.562,-8.25,301.937,0.823,-125.0,727.0,-246.0
2020-01-19 17:54:01.100000,108.625,-2.5,300.375,0.857,-108.0,710.0,-246.0
2020-01-19 17:54:01.200000,105.562,1.0,303.25,0.759,-108.0,710.0,-218.0
2020-01-19 17:54:01.300000,105.562,1.0,303.25,0.759,-738.0,549.0,-210.0
2020-01-19 17:54:01.400000,105.625,-6.375,306.75,0.945,-1002.0,703.0,-210.0
2020-01-19 17:54:01.500000,105.375,-32.625,312.125,1.241,-1002.0,703.0,-1178.0
2020-01-19 17:54:01.600000,105.375,-32.625,312.125,1.241,-390.0,1649.0,-1950.0
2020-01-19 17:54:01.700000,98.312,-67.375,321.812,2.063,-3471.0,331.0,-1950.0
2020-01-19 17:54:01.800000,126.562,-64.625,317.5,3.994,-3471.0,331.0,150.0
2020-01-19 17:54:01.900000,126.562,-64.625,317.5,3.994,-224.0,-576.0,357.0
2020-01-19 17:54:02,57.937,17.187,280.875,0.635,271.0,472.0,357.0
2020-01-19 17:54:02.100000,47.687,39.0,272.875,0.65,271.0,472.0,104.0
2020-01-19 17:54:02.200000,47.687,39.0,272.875,0.65,273.0,707.0,-89.0
2020-01-19 17:54:02.300000,67.0,31.125,285.062,0.764,-214.0,1026.0,-89.0
2020-01-19 17:54:02.400000,83.75,10.187,292.5,1.051,-214.0,1026.0,-330.0
2020-01-19 17:54:02.500000,83.75,10.187,292.5,1.051,-618.0,996.0,-370.0
2020-01-19 17:54:02.600000,100.5,-13.188,295.75,1.217,-734.0,643.0,-370.0
2020-01-19 17:54:02.700000,106.25,-33.063,296.187,1.043,-734.0,643.0,-45.0
2020-01-19 17:54:02.800000,106.25,-33.063,296.187,1.043,-1067.0,274.0,-48.0
2020-01-19 17:54:02.900000,93.0,-57.688,300.812,1.102,-829.0,362.0,-48.0
2020-01-19 17:54:03,73.75,-68.125,323.937,0.905,-829.0,362.0,65.0
2020-01-19 17:54:03.100000,73.75,-68.125,323.937,0.905,-937.0,344.0,160.0
2020-01-19 17:54:03.200000,71.625,-66.5,335.5,1.0,-1028.0,424.0,160.0
2020-01-19 17:54:03.300000,73.187,-61.813,337.812,1.123,-1028.0,424.0,-5.0
2020-01-19 17:54:03.400000,73.187,-61.813,337.812,1.123,-732.0,582.0,-148.0
2020-01-19 17:54:03.500000,83.625,-53.875,332.0,0.935,-587.0,609.0,-148.0
2020-01-19 17:54:03.600000,94.0,-46.875,332.562,0.858,-587.0,609.0,-317.0
2020-01-19 17:54:03.700000,94.0,-46.875,332.562,0.858,-575.0,688.0,-247.0
2020-01-19 17:54:03.800000,102.875,-40.0,329.562,0.951,-695.0,610.0,-247.0
2020-01-19 17:54:03.900000,105.375,-38.25,324.875,0.957,-695.0,610.0,-185.0
2020-01-19 17:54:04,105.375,-38.25,324.875,0.957,-695.0,618.0,-327.0
2020-01-19 17:54:04.100000,113.812,-36.875,323.125,0.948,-631.0,640.0,-327.0
2020-01-19 17:54:04.200000,110.875,-38.875,321.75,0.956,-631.0,640.0,-211.0
2020-01-19 17:54:04.300000,110.875,-38.875,321.75,0.956,-591.0,668.0,-272.0
2020-01-19 17:54:04.400000,105.312,-43.5,318.312,0.916,-745.0,504.0,-272.0
2020-01-19 17:54:04.500000,97.812,-47.875,315.125,0.939,-745.0,504.0,-114.0
2020-01-19 17:54:04.600000,97.812,-47.875,315.125,0.939,-608.0,535.0,-244.0
2020-01-19 17:54:04.700000,93.5,-46.125,312.625,0.817,-466.0,990.0,-244.0
2020-01-19 17:54:04.800000,97.0,-38.375,303.875,1.121,-466.0,990.0,-342.0
2020-01-19 17:54:04.900000,97.0,-38.375,303.875,1.121,-355.0,916.0,-277.0
2020-01-19 17:54:05,103.312,-34.438,290.125,1.04,-326.0,553.0,-277.0
2020-01-19 17:54:05.100000,112.812,-33.0,284.375,0.699,-326.0,553.0,-692.0
2020-01-19 17:54:05.200000,112.812,-33.0,284.375,0.699,-693.0,746.0,-899.0
2020-01-19 17:54:05.300000,121.062,-31.5,276.437,1.231,-182.0,868.0,-899.0
2020-01-19 17:54:05.400000,126.937,-39.188,271.5,1.262,-182.0,868.0,-1519.0
2020-01-19 17:54:05.500000,126.937,-39.188,271.5,1.262,-472.0,1443.0,-96.0
2020-01-19 17:54:05.600000,120.75,-47.563,281.187,2.147,-3148.0,-146.0,-96.0
2020-01-19 17:54:05.700000,135.562,-30.875,278.5,3.152,-3148.0,-146.0,-190.0
2020-01-19 17:54:05.800000,135.562,-30.875,278.5,3.152,244.0,-401.0,-1279.0
2020-01-19 17:54:05.900000,76.937,16.562,282.562,0.506,-548.0,1072.0,-1279.0
2020-01-19 17:54:06,88.0,32.312,297.562,1.756,-548.0,1072.0,-264.0
2020-01-19 17:54:06.100000,88.0,32.312,297.562,1.756,-119.0,353.0,-558.0
2020-01-19 17:54:06.200000,124.187,-8.813,307.125,0.456,-316.0,603.0,-558.0
2020-01-19 17:54:06.300000,124.937,-23.438,302.5,0.88,-316.0,603.0,-1234.0
2020-01-19 17:54:06.400000,124.937,-23.438,302.5,0.88,-1108.0,602.0,-131.0
2020-01-19 17:54:06.500000,140.937,-19.813,294.125,1.764,-346.0,184.0,-131.0
2020-01-19 17:54:06.600000,120.0,-18.938,302.187,0.413,-346.0,184.0,-458.0
2020-01-19 17:54:06.700000,120.0,-18.938,302.187,0.413,-658.0,870.0,-196.0
2020-01-19 17:54:06.800000,121.875,-15.0,321.687,1.183,-372.0,729.0,-196.0
2020-01-19 17:54:06.900000,120.625,-19.125,338.437,0.841,-372.0,729.0,-257.0
2020-01-19 17:54:07,120.625,-19.125,338.437,0.841,-535.0,623.0,-460.0
2020-01-19 17:54:07.100000,114.312,-26.938,351.125,0.86,-617.0,806.0,-460.0
2020-01-19 17:54:07.200000,124.625,-30.375,7.875,1.114,-617.0,806.0,-776.0
2020-01-19 17:54:07.300000,124.625,-30.375,7.875,1.114,-646.0,765.0,-327.0
2020-01-19 17:54:07.400000,124.125,-29.125,16.437,1.266,-263.0,419.0,-327.0
2020-01-19 17:54:07.500000,122.25,-34.375,28.375,0.593,-263.0,419.0,-337.0
2020-01-19 17:54:07.600000,122.25,-34.375,28.375,0.593,-516.0,586.0,-672.0
2020-01-19 17:54:07.700000,120.062,-35.063,41.437,0.85,-483.0,674.0,-672.0
2020-01-19 17:54:07.800000,125.25,-35.125,51.0,1.067,-483.0,674.0,-574.0
2020-01-19 17:54:07.900000,125.25,-35.125,51.0,1.067,-539.0,462.0,-549.0
2020-01-19 17:54:08,129.375,-35.813,46.062,0.912,-461.0,446.0,-549.0
2020-01-19 17:54:08.100000,133.5,-35.625,34.812,0.844,-461.0,446.0,-675.0
2020-01-19 17:54:08.200000,133.5,-35.625,34.812,0.844,-932.0,467.0,-739.0
2020-01-19 17:54:08.300000,134.312,-34.063,14.562,1.241,-749.0,345.0,-739.0
2020-01-19 17:54:08.400000,135.125,-36.375,355.437,1.107,-749.0,345.0,-450.0
2020-01-19 17:54:08.500000,135.125,-36.375,355.437,1.107,-479.0,270.0,-365.0
2020-01-19 17:54:08.600000,130.5,-36.375,345.625,0.71,-852.0,313.0,-365.0
2020-01-19 17:54:08.700000,125.187,-38.625,334.125,0.978,-852.0,313.0,-335.0
2020-01-19 17:54:08.800000,125.187,-38.625,334.125,0.978,-818.0,418.0,-288.0
2020-01-19 17:54:08.900000,129.625,-38.125,332.062,0.977,-702.0,349.0,-288.0
2020-01-19 17:54:09,125.812,-37.375,336.062,0.835,-702.0,349.0,-216.0
2020-01-19 17:54:09.100000,125.812,-37.375,336.062,0.835,-997.0,484.0,-477.0
2020-01-19 17:54:09.200000,127.437,-36.25,339.062,1.129,-898.0,629.0,-477.0
2020-01-19 17:54:09.300000,129.312,-35.313,350.312,1.195,-898.0,629.0,-896.0
2020-01-19 17:54:09.400000,129.312,-35.313,350.312,1.195,-725.0,435.0,-974.0
2020-01-19 17:54:09.500000,121.75,-33.625,30.375,1.231,-786.0,199.0,-974.0
2020-01-19 17:54:09.600000,110.187,-24.625,75.5,1.267,-786.0,199.0,-1943.0
2020-01-19 17:54:09.700000,110.187,-24.625,75.5,1.267,-1364.0,-692.0,-2733.0
2020-01-19 17:54:09.800000,112.75,-19.75,94.75,2.472,-3543.0,322.0,-2733.0
2020-01-19 17:54:09.900000,135.375,-27.75,55.125,4.486,-3543.0,322.0,414.0
2020-01-19 17:54:10,135.375,-27.75,55.125,4.486,-2746.0,-12.0,891.0
2020-01-19 17:54:10.100000,135.625,6.375,329.937,2.777,-555.0,308.0,891.0
2020-01-19 17:54:10.200000,88.187,38.375,269.187,1.093,-555.0,308.0,-39.0
2020-01-19 17:54:10.300000,88.187,38.375,269.187,1.093,158.0,711.0,-803.0
2020-01-19 17:54:10.400000,78.375,34.375,239.937,0.729,-187.0,998.0,-468.0
2020-01-19 17:54:10.500000,123.625,10.687,248.312,1.294,-930.0,732.0,-468.0
2020-01-19 17:54:10.600000,119.562,-13.625,258.187,1.272,-930.0,732.0,-460.0
2020-01-19 17:54:10.700000,119.562,-13.625,258.187,1.272,-1255.0,440.0,-182.0
2020-01-19 17:54:10.800000,103.0,-44.125,285.75,1.407,-1156.0,230.0,-182.0
2020-01-19 17:54:10.900000,74.625,-62.75,332.5,1.192,-1156.0,230.0,-32.0
2020-01-19 17:54:11,74.625,-62.75,332.5,1.192,-848.0,234.0,190.0
2020-01-19 17:54:11.100000,47.812,-59.188,21.312,0.88,-801.0,248.0,190.0
2020-01-19 17:54:11.200000,50.25,-48.5,41.875,0.859,-801.0,248.0,57.0
2020-01-19 17:54:11.300000,50.25,-48.5,41.875,0.859,-895.0,707.0,-155.0
2020-01-19 17:54:11.400000,58.125,-48.063,47.125,1.141,-697.0,650.0,-155.0
2020-01-19 17:54:11.500000,69.562,-53.688,48.937,0.965,-697.0,650.0,-262.0
2020-01-19 17:54:11.600000,69.562,-53.688,48.937,0.965,-759.0,586.0,-67.0
2020-01-19 17:54:11.700000,87.687,-52.688,31.437,0.994,-1001.0,418.0,-67.0
2020-01-19 17:54:11.800000,99.75,-49.188,11.875,1.086,-1001.0,418.0,-85.0
2020-01-19 17:54:11.900000,99.75,-49.188,11.875,1.086,-798.0,504.0,-143.0
2020-01-19 17:54:12,105.937,-44.875,356.312,0.947,-762.0,620.0,-143.0
2020-01-19 17:54:12.100000,108.125,-44.375,345.062,0.992,-762.0,620.0,-329.0
2020-01-19 17:54:12.200000,108.125,-44.375,345.062,0.992,-825.0,581.0,-546.0
2020-01-19 17:54:12.300000,101.875,-46.125,339.125,1.061,-473.0,866.0,-546.0
2020-01-19 17:54:12.400000,102.312,-45.813,316.875,1.127,-473.0,866.0,-807.0
2020-01-19 17:54:12.500000,102.312,-45.813,316.875,1.127,-531.0,1048.0,423.0
2020-01-19 17:54:12.600000,105.25,-29.25,287.625,1.425,-370.0,190.0,423.0
2020-01-19 17:54:12.700000,107.125,-2.188,258.75,0.593,-370.0,190.0,1165.0
2020-01-19 17:54:12.800000,107.125,-2.188,258.75,0.593,-724.0,567.0,-334.0
2020-01-19 17:54:12.900000,49.437,-22.0,217.562,1.484,-2417.0,-1775.0,-334.0
2020-01-19 17:54:13,4.562,-46.563,208.562,3.017,-2417.0,-1775.0,-1090.0
2020-01-19 17:54:13.100000,4.562,-46.563,208.562,3.017,-1437.0,515.0,-1021.0
2020-01-19 17:54:13.200000,19.75,-2.125,274.687,1.875,-251.0,1111.0,-1021.0
2020-01-19 17:54:13.300000,81.937,9.25,329.937,1.529,-251.0,1111.0,-5.0
2020-01-19 17:54:13.400000,81.937,9.25,329.937,1.529,-560.0,757.0,306.0
2020-01-19 17:54:13.500000,85.75,-7.5,328.562,0.941,-971.0,623.0,306.0
2020-01-19 17:54:13.600000,72.812,-33.0,317.0,1.193,-971.0,623.0,243.0
2020-01-19 17:54:13.700000,72.812,-33.0,317.0,1.193,-952.0,256.0,418.0
2020-01-19 17:54:13.800000,64.25,-53.125,307.25,1.015,-1212.0,150.0,418.0
2020-01-19 17:54:13.900000,52.562,-65.0,307.812,1.29,-1212.0,150.0,409.0
2020-01-19 17:54:14,52.562,-65.0,307.812,1.29,-1157.0,362.0,198.0
2020-01-19 17:54:14.100000,46.0,-69.813,317.687,1.279,-835.0,329.0,198.0
2020-01-19 17:54:14.200000,23.687,-72.063,348.625,0.919,-835.0,329.0,255.0
2020-01-19 17:54:14.300000,23.687,-72.063,348.625,0.919,-869.0,243.0,376.0
2020-01-19 17:54:14.400000,8.375,-69.313,8.687,0.937,-976.0,130.0,376.0
2020-01-19 17:54:14.500000,8.125,-69.0,11.625,1.053,-976.0,130.0,348.0
2020-01-19 17:54:14.600000,8.125,-69.0,11.625,1.053,-1070.0,173.0,165.0
2020-01-19 17:54:14.700000,26.125,-68.563,355.25,1.138,-835.0,283.0,165.0
2020-01-19 17:54:14.800000,44.375,-63.813,332.562,0.896,-835.0,283.0,-52.0
2020-01-19 17:54:14.900000,44.375,-63.813,332.562,0.896,-732.0,576.0,-90.0
2020-01-19 17:54:15,57.437,-56.125,319.437,0.932,-634.0,609.0,-90.0
2020-01-19 17:54:15.100000,70.25,-49.938,317.062,0.883,-634.0,609.0,-160.0
2020-01-19 17:54:15.200000,70.25,-49.938,317.062,0.883,-764.0,589.0,79.0
2020-01-19 17:54:15.300000,77.312,-45.75,314.687,0.977,-912.0,668.0,79.0
2020-01-19 17:54:15.400000,79.812,-44.125,312.625,1.133,-912.0,668.0,219.0
2020-01-19 17:54:15.500000,79.812,-44.125,312.625,1.133,-594.0,684.0,224.0
2020-01-19 17:54:15.600000,83.812,-45.625,310.25,0.932,-510.0,666.0,224.0
2020-01-19 17:54:15.700000,80.562,-46.125,307.812,0.868,-510.0,666.0,115.0
2020-01-19 17:54:15.800000,80.562,-46.125,307.812,0.868,-620.0,821.0,-82.0
2020-01-19 17:54:15.900000,82.562,-44.375,307.0,1.035,-396.0,789.0,-82.0
2020-01-19 17:54:16,88.562,-39.938,309.125,0.886,-396.0,789.0,-460.0
2020-01-19 17:54:16.100000,88.562,-39.938,309.125,0.886,-686.0,571.0,-164.0
2020-01-19 17:54:16.200000,97.687,-38.375,309.562,1.004,-731.0,390.0,-164.0
2020-01-19 17:54:16.300000,104.25,-45.75,306.937,0.844,-731.0,390.0,-125.0
2020-01-19 17:54:16.400000,104.25,-45.75,306.937,0.844,-959.0,511.0,186.0
2020-01-19 17:54:16.500000,108.25,-44.5,304.687,1.093,-915.0,459.0,186.0
2020-01-19 17:54:16.600000,109.312,-47.125,317.0,1.04,-915.0,459.0,-241.0
2020-01-19 17:54:16.700000,109.312,-47.125,317.0,1.04,-950.0,697.0,-1059.0
2020-01-19 17:54:16.800000,101.625,-45.75,337.375,1.202,-677.0,660.0,-1059.0
2020-01-19 17:54:16.900000,101.5,-42.063,13.937,1.419,-677.0,660.0,-1596.0
2020-01-19 17:54:17,101.5,-42.063,13.937,1.419,-1483.0,-321.0,-1200.0
2020-01-19 17:54:17.100000,101.125,-37.563,35.937,2.202,-2277.0,1032.0,-1200.0
2020-01-19 17:54:17.200000,120.062,-38.188,347.625,2.773,-2277.0,1032.0,64.0
2020-01-19 17:54:17.300000,120.062,-38.188,347.625,2.773,-1841.0,-744.0,716.0
2020-01-19 17:54:17.400000,149.625,-0.438,283.75,1.986,-205.0,397.0,716.0
2020-01-19 17:54:17.500000,59.687,25.625,237.687,0.843,-205.0,397.0,734.0
2020-01-19 17:54:17.600000,59.687,25.625,237.687,0.843,209.0,490.0,220.0
2020-01-19 17:54:17.700000,53.375,15.437,230.0,0.906,-699.0,838.0,220.0
2020-01-19 17:54:17.800000,59.375,-10.813,238.375,1.113,-699.0,838.0,-367.0
2020-01-19 17:54:17.900000,59.375,-10.813,238.375,1.113,-1338.0,873.0,-30.0
2020-01-19 17:54:18,75.812,-44.813,246.437,1.639,-929.0,95.0,-30.0
2020-01-19 17:54:18.100000,37.562,-74.0,283.562,0.934,-929.0,95.0,141.0
2020-01-19 17:54:18.200000,37.562,-74.0,283.562,0.934,-819.0,207.0,14.0
2020-01-19 17:54:18.300000,-11.813,-72.938,332.25,0.856,-791.0,44.0,14.0
2020-01-19 17:54:18.400000,-40.625,-70.563,349.687,0.792,-791.0,44.0,380.0
2020-01-19 17:54:18.500000,-40.625,-70.563,349.687,0.792,-1173.0,-70.0,617.0
2020-01-19 17:54:18.600000,-23.813,-74.875,324.125,1.235,-1387.0,77.0,617.0
2020-01-19 17:54:18.700000,-11.563,-76.125,285.562,1.519,-1387.0,77.0,388.0
2020-01-19 17:54:18.800000,-11.563,-76.125,285.562,1.519,-638.0,120.0,418.0
2020-01-19 17:54:18.900000,19.125,-70.5,250.937,0.756,-791.0,261.0,418.0
2020-01-19 17:54:19,36.562,-62.313,234.625,0.931,-791.0,261.0,339.0
2020-01-19 17:54:19.100000,36.562,-62.313,234.625,0.931,-780.0,425.0,349.0
2020-01-19 17:54:19.200000,43.562,-58.063,227.312,0.95,-676.0,557.0,349.0
2020-01-19 17:54:19.300000,44.812,-55.75,224.562,0.942,-676.0,557.0,364.0
2020-01-19 17:54:19.400000,44.812,-55.75,224.562,0.942,-636.0,611.0,260.0
2020-01-19 17:54:19.500000,44.562,-57.438,213.562,0.954,-918.0,926.0,260.0
2020-01-19 17:54:19.600000,46.562,-59.688,172.625,1.329,-918.0,926.0,329.0
2020-01-19 17:54:19.700000,46.562,-59.688,172.625,1.329,-404.0,803.0,619.0
2020-01-19 17:54:19.800000,47.937,-45.625,145.5,0.957,-91.0,914.0,619.0
2020-01-19 17:54:19.900000,44.875,-27.313,126.25,1.107,-91.0,914.0,815.0
2020-01-19 17:54:20,44.875,-27.313,126.25,1.107,-539.0,729.0,755.0
2020-01-19 17:54:20.100000,44.812,-11.75,107.125,1.219,-389.0,-152.0,755.0
2020-01-19 17:54:20.200000,29.125,8.312,83.75,0.862,-389.0,-152.0,525.0
2020-01-19 17:54:20.300000,29.125,8.312,83.75,0.862,164.0,-884.0,203.0
2020-01-19 17:54:20.400000,-13.188,22.25,61.187,1.041,-1080.0,-1401.0,203.0
2020-01-19 17:54:20.500000,-21.313,23.875,47.75,1.78,-1080.0,-1401.0,-621.0
2020-01-19 17:54:20.600000,-21.313,23.875,47.75,1.78,-3961.0,-1523.0,-1199.0
2020-01-19 17:54:20.700000,-16.25,-8.313,85.562,4.288,-4000.0,15.0,-1199.0
2020-01-19 17:54:20.800000,22.937,-37.313,198.062,4.175,-4000.0,15.0,-1246.0
2020-01-19 17:54:20.900000,22.937,-37.313,198.062,4.175,-2135.0,1718.0,325.0
2020-01-19 17:54:21,29.125,-2.188,290.875,3.01,-592.0,1163.0,325.0
2020-01-19 17:54:21.100000,10.312,-7.563,337.125,1.344,-592.0,1163.0,781.0
2020-01-19 17:54:21.200000,10.312,-7.563,337.125,1.344,-995.0,-53.0,235.0
2020-01-19 17:54:21.300000,-21.125,-36.375,349.0,1.266,-1415.0,76.0,235.0
2020-01-19 17:54:21.400000,-20.75,-59.563,337.687,1.436,-1415.0,76.0,72.0
2020-01-19 17:54:21.500000,-20.75,-59.563,337.687,1.436,-1472.0,-182.0,184.0
2020-01-19 17:54:21.600000,-1.313,-79.125,263.75,1.484,-651.0,161.0,184.0
2020-01-19 17:54:21.700000,49.625,-66.875,180.25,0.695,-651.0,161.0,126.0
2020-01-19 17:54:21.800000,49.625,-66.875,180.25,0.695,-774.0,441.0,192.0
2020-01-19 17:54:21.900000,50.875,-52.438,157.812,0.899,-1265.0,179.0,192.0
2020-01-19 17:54:22,51.187,-59.75,135.312,1.291,-1265.0,179.0,40.0
2020-01-19 17:54:22.100000,51.187,-59.75,135.312,1.291,-660.0,342.0,69.0
2020-01-19 17:54:22.200000,67.812,-62.563,112.5,0.744,-1023.0,281.0,69.0
2020-01-19 17:54:22.300000,79.312,-63.813,99.937,1.063,-1023.0,281.0,197.0
2020-01-19 17:54:22.400000,79.312,-63.813,99.937,1.063,-1172.0,5.0,218.0
2020-01-19 17:54:22.500000,71.5,-67.5,92.875,1.188,-838.0,34.0,218.0
2020-01-19 17:54:22.600000,75.625,-67.625,80.687,0.866,-838.0,34.0,-13.0
2020-01-19 17:54:22.700000,75.625,-67.625,80.687,0.866,-800.0,196.0,72.0
2020-01-19 17:54:22.800000,74.187,-73.0,75.812,0.823,-1154.0,87.0,72.0
2020-01-19 17:54:22.900000,47.812,-76.125,98.25,1.159,-1154.0,87.0,235.0
2020-01-19 17:54:23,47.812,-76.125,98.25,1.159,-1115.0,-270.0,4.0
2020-01-19 17:54:23.100000,34.75,-74.625,98.687,1.171,-1076.0,112.0,4.0
2020-01-19 17:54:23.200000,56.062,-72.75,78.125,1.081,-1076.0,112.0,219.0
2020-01-19 17:54:23.300000,56.062,-72.75,78.125,1.081,-1088.0,685.0,76.0
2020-01-19 17:54:23.400000,69.187,-70.75,68.187,1.304,-621.0,523.0,76.0
2020-01-19 17:54:23.500000,76.625,-49.563,54.625,0.815,-621.0,523.0,212.0
2020-01-19 17:54:23.600000,76.625,-49.563,54.625,0.815,-416.0,959.0,33.0
2020-01-19 17:54:23.700000,80.562,-36.938,40.812,1.066,-134.0,994.0,33.0
2020-01-19 17:54:23.800000,77.062,-22.063,23.437,1.003,-134.0,994.0,-88.0
2020-01-19 17:54:23.900000,77.062,-22.063,23.437,1.003,-281.0,957.0,259.0
2020-01-19 17:54:24,77.625,-7.313,10.125,1.001,-271.0,697.0,259.0
2020-01-19 17:54:24.100000,58.625,-3.875,356.75,0.791,-271.0,697.0,345.0
2020-01-19 17:54:24.200000,58.625,-3.875,356.75,0.791,-183.0,611.0,663.0
2020-01-19 17:54:24.300000,54.937,-1.125,352.937,0.725,-384.0,601.0,663.0
2020-01-19 17:54:24.400000,51.062,-4.875,348.375,0.973,-384.0,601.0,409.0
2020-01-19 17:54:24.500000,51.062,-4.875,348.375,0.973,-186.0,795.0,94.0
2020-01-19 17:54:24.600000,61.75,-8.563,347.437,0.913,-275.0,859.0,147.0
2020-01-19 17:54:24.700000,78.0,-16.125,350.687,0.906,-491.0,743.0,147.0
2020-01-19 17:54:24.800000,73.125,-20.438,350.687,0.902,-491.0,743.0,231.0
2020-01-19 17:54:24.900000,73.125,-20.438,350.687,0.902,-553.0,771.0,220.0
2020-01-19 17:54:25,79.187,-20.938,349.25,0.976,-562.0,653.0,220.0
2020-01-19 17:54:25.100000,72.187,-26.188,348.75,0.889,-562.0,653.0,224.0
2020-01-19 17:54:25.200000,72.187,-26.188,348.75,0.889,-734.0,578.0,194.0
2020-01-19 17:54:25.300000,73.937,-31.063,351.687,0.96,-759.0,741.0,194.0
2020-01-19 17:54:25.400000,73.25,-35.375,6.625,1.078,-759.0,741.0,312.0
2020-01-19 17:54:25.500000,73.25,-35.375,6.625,1.078,-561.0,588.0,19.0
2020-01-19 17:54:25.600000,68.5,-41.25,16.375,0.87,-555.0,965.0,19.0
2020-01-19 17:54:25.700000,80.875,-39.063,28.312,1.113,-555.0,965.0,134.0
2020-01-19 17:54:25.800000,80.875,-39.063,28.312,1.113,-843.0,421.0,134.0
2020-01-19 17:54:25.900000,92.875,-39.75,33.875,0.951,-843.0,421.0,9.0
2020-01-19 17:54:26,92.875,-39.75,33.875,0.951,-877.0,378.0,110.0
2020-01-19 17:54:26.100000,88.312,-42.25,38.625,0.955,-955.0,311.0,110.0
2020-01-19 17:54:26.200000,82.062,-44.0,49.625,1.01,-955.0,311.0,98.0
2020-01-19 17:54:26.300000,82.062,-44.0,49.625,1.01,-868.0,476.0,231.0
2020-01-19 17:54:26.400000,75.5,-45.563,66.625,0.994,-745.0,549.0,231.0
2020-01-19 17:54:26.500000,77.375,-52.063,86.687,0.953,-815.0,509.0,231.0
2020-01-19 17:54:26.600000,83.687,-59.313,103.125,0.988,-815.0,509.0,123.0
2020-01-19 17:54:26.700000,83.687,-59.313,103.125,0.988,-900.0,422.0,121.0
2020-01-19 17:54:26.800000,89.25,-64.5,115.75,1.001,-870.0,397.0,121.0
2020-01-19 17:54:26.900000,89.312,-69.188,123.75,0.963,-870.0,397.0,100.0
2020-01-19 17:54:27,89.312,-69.188,123.75,0.963,-999.0,330.0,92.0
2020-01-19 17:54:27.100000,88.687,-71.813,129.875,1.056,-862.0,160.0,92.0
2020-01-19 17:54:27.200000,80.375,-74.063,139.312,0.881,-862.0,160.0,105.0
2020-01-19 17:54:27.300000,80.375,-74.063,139.312,0.881,-1048.0,48.0,57.0
2020-01-19 17:54:27.400000,90.0,-79.188,124.75,1.054,-806.0,-57.0,57.0
2020-01-19 17:54:27.500000,173.687,-83.75,109.25,0.81,-806.0,-57.0,-179.0
2020-01-19 17:54:27.600000,173.687,-83.75,109.25,0.81,-1025.0,-182.0,-118.0
2020-01-19 17:54:27.700000,154.625,-82.563,52.25,1.056,-687.0,-195.0,-118.0
2020-01-19 17:54:27.800000,172.75,-82.375,35.812,0.723,-687.0,-195.0,-31.0
2020-01-19 17:54:27.900000,172.75,-82.375,35.812,0.723,-810.0,-59.0,117.0
2020-01-19 17:54:28,178.625,-85.0,46.812,0.812,-1121.0,60.0,117.0
2020-01-19 17:54:28.100000,4.437,-85.5,134.75,1.128,-1121.0,60.0,184.0
2020-01-19 17:54:28.200000,4.437,-85.5,134.75,1.128,-1125.0,253.0,378.0
2020-01-19 17:54:28.300000,61.187,-76.438,156.062,1.167,-1012.0,320.0,378.0
2020-01-19 17:54:28.400000,64.375,-67.813,154.562,1.126,-1012.0,320.0,338.0
2020-01-19 17:54:28.500000,64.375,-67.813,154.562,1.126,-1135.0,422.0,328.0
2020-01-19 17:54:28.600000,67.437,-64.625,144.75,1.257,-1073.0,618.0,328.0
2020-01-19 17:54:28.700000,69.687,-62.0,140.125,1.28,-1073.0,618.0,354.0
2020-01-19 17:54:28.800000,69.687,-62.0,140.125,1.28,-425.0,704.0,71.0
2020-01-19 17:54:28.900000,65.375,-49.5,144.312,0.895,-254.0,733.0,71.0
2020-01-19 17:54:29,74.25,-23.75,139.375,0.779,-254.0,733.0,213.0
2020-01-19 17:54:29.100000,74.25,-23.75,139.375,0.779,-415.0,711.0,269.0
2020-01-19 17:54:29.200000,80.562,-7.75,124.25,0.85,-184.0,841.0,269.0
2020-01-19 17:54:29.300000,80.437,-3.5,118.937,0.901,-184.0,841.0,184.0
2020-01-19 17:54:29.400000,80.437,-3.5,118.937,0.901,-44.0,985.0,190.0
2020-01-19 17:54:29.500000,79.937,-3.5,120.125,1.003,-4.0,867.0,190.0
2020-01-19 17:54:29.600000,80.75,-2.5,122.75,0.887,-4.0,867.0,165.0
2020-01-19 17:54:29.700000,80.75,-2.5,122.75,0.887,-44.0,883.0,100.0
2020-01-19 17:54:29.800000,80.75,-1.875,122.812,0.899,-43.0,914.0,100.0
2020-01-19 17:54:29.900000,83.687,-2.25,122.0,0.92,-43.0,914.0,156.0
2020-01-19 17:54:30,83.687,-2.25,122.0,0.92,-81.0,925.0,48.0
2020-01-19 17:54:30.100000,85.25,-2.25,119.812,0.941,-56.0,948.0,48.0
2020-01-19 17:54:30.200000,88.937,-2.438,119.562,0.95,-56.0,948.0,45.0
2020-01-19 17:54:30.300000,88.937,-2.438,119.562,0.95,-104.0,934.0,143.0
2020-01-19 17:54:30.400000,90.687,-2.063,117.437,0.94,33.0,992.0,143.0
2020-01-19 17:54:30.500000,90.937,0.25,119.312,1.002,33.0,992.0,555.0
2020-01-19 17:54:30.600000,90.937,0.25,119.312,1.002,-171.0,645.0,697.0
2020-01-19 17:54:30.700000,66.875,-1.063,120.125,0.867,-26.0,622.0,697.0
2020-01-19 17:54:30.800000,45.5,-3.75,121.125,0.934,-26.0,622.0,918.0
2020-01-19 17:54:30.900000,45.5,-3.75,121.125,0.934,-132.0,376.0,834.0
2020-01-19 17:54:31,38.75,-5.188,120.875,1.0,-118.0,453.0,834.0
2020-01-19 17:54:31.100000,34.125,-5.188,120.937,0.956,-118.0,453.0,858.0
2020-01-19 17:54:31.200000,34.125,-5.188,120.937,0.956,-86.0,452.0,839.0
2020-01-19 17:54:31.300000,33.375,-4.5,121.875,0.973,-51.0,424.0,839.0
2020-01-19 17:54:31.400000,34.562,-2.5,121.437,0.941,-51.0,424.0,856.0
2020-01-19 17:54:31.500000,34.562,-2.5,121.437,0.941,-55.0,415.0,869.0
2020-01-19 17:54:31.600000,32.875,-1.5,121.687,0.952,-77.0,402.0,869.0
2020-01-19 17:54:31.700000,31.812,-2.625,121.312,0.96,-77.0,402.0,893.0
2020-01-19 17:54:31.800000,31.812,-2.625,121.312,0.96,-109.0,356.0,912.0
2020-01-19 17:54:31.900000,28.812,-3.875,121.0,0.967,-130.0,233.0,912.0
2020-01-19 17:54:32,24.375,-5.75,120.875,0.95,-130.0,233.0,958.0
2020-01-19 17:54:32.100000,24.375,-5.75,120.875,0.95,-183.0,188.0,827.0
2020-01-19 17:54:32.200000,18.812,-8.188,121.187,0.993,-149.0,348.0,827.0
2020-01-19 17:54:32.300000,25.812,-7.625,123.25,0.909,-149.0,348.0,609.0
2020-01-19 17:54:32.400000,25.812,-7.625,123.25,0.909,-142.0,805.0,556.0
2020-01-19 17:54:32.500000,43.875,-6.813,128.375,1.019,-69.0,805.0,556.0
2020-01-19 17:54:32.600000,58.562,-6.188,130.312,0.98,-69.0,805.0,551.0
2020-01-19 17:54:32.700000,58.562,-6.188,130.312,0.98,-107.0,739.0,556.0
2020-01-19 17:54:32.800000,61.437,-4.0,128.062,0.927,-116.0,728.0,556.0
2020-01-19 17:54:32.900000,59.375,-4.688,127.437,0.923,-116.0,728.0,551.0
2020-01-19 17:54:33,59.375,-4.688,127.437,0.923,-88.0,777.0,531.0
2020-01-19 17:54:33.100000,58.562,-5.625,127.312,0.956,-117.0,708.0,531.0
2020-01-19 17:54:33.200000,58.687,-4.875,127.812,0.892,-117.0,708.0,556.0
2020-01-19 17:54:33.300000,58.687,-4.875,127.812,0.892,-137.0,803.0,522.0
2020-01-19 17:54:33.400000,58.562,-6.125,128.062,0.986,-129.0,754.0,522.0
2020-01-19 17:54:33.500000,62.562,-7.125,129.625,0.926,-129.0,754.0,529.0
2020-01-19 17:54:33.600000,62.562,-7.125,129.625,0.926,-105.0,778.0,668.0
2020-01-19 17:54:33.700000,61.125,-7.0,129.125,0.946,-113.0,687.0,668.0
2020-01-19 17:54:33.800000,56.5,-8.125,127.625,0.964,-113.0,687.0,720.0
2020-01-19 17:54:33.900000,56.5,-8.125,127.625,0.964,-305.0,508.0,808.0
2020-01-19 17:54:34,44.75,-10.188,125.0,0.932,-285.0,628.0,808.0
2020-01-19 17:54:34.100000,42.687,-8.125,127.875,1.062,-285.0,628.0,779.0
2020-01-19 17:54:34.200000,42.687,-8.125,127.875,1.062,-331.0,565.0,771.0
2020-01-19 17:54:34.300000,44.75,-13.875,127.75,1.017,-378.0,576.0,771.0
2020-01-19 17:54:34.400000,40.687,-19.063,130.125,1.033,-378.0,576.0,533.0
2020-01-19 17:54:34.500000,40.687,-19.063,130.125,1.033,-228.0,540.0,639.0
2020-01-19 17:54:34.600000,40.625,-25.188,128.437,0.792,-326.0,507.0,639.0
2020-01-19 17:54:34.700000,47.687,-23.813,129.437,0.878,-326.0,507.0,708.0
2020-01-19 17:54:34.800000,47.687,-23.813,129.437,0.878,-386.0,613.0,635.0
2020-01-19 17:54:34.900000,48.062,-19.438,132.0,1.012,-234.0,664.0,635.0
2020-01-19 17:54:35,49.437,-15.25,134.125,0.948,-234.0,664.0,614.0
2020-01-19 17:54:35.100000,49.437,-15.25,134.125,0.948,-273.0,552.0,642.0
2020-01-19 17:54:35.200000,50.062,-12.438,138.562,0.869,-200.0,697.0,642.0
2020-01-19 17:54:35.300000,50.0,-13.813,142.937,0.968,-200.0,697.0,618.0
2020-01-19 17:54:35.400000,50.0,-13.813,142.937,0.968,-276.0,697.0,590.0
2020-01-19 17:54:35.500000,51.437,-16.063,146.687,0.971,-271.0,704.0,590.0
2020-01-19 17:54:35.600000,53.0,-16.625,148.25,0.957,-271.0,704.0,564.0
2020-01-19 17:54:35.700000,53.0,-16.625,148.25,0.957,-238.0,685.0,363.0
2020-01-19 17:54:35.800000,55.375,-15.25,150.5,0.918,-86.0,817.0,363.0
2020-01-19 17:54:35.900000,62.437,-12.375,154.75,0.898,-86.0,817.0,465.0
2020-01-19 17:54:36,62.437,-12.375,154.75,0.898,-273.0,841.0,427.0
2020-01-19 17:54:36.100000,66.312,-11.875,159.5,0.999,-219.0,811.0,427.0
2020-01-19 17:54:36.200000,67.187,-12.75,163.812,0.942,-219.0,811.0,323.0
2020-01-19 17:54:36.300000,67.187,-12.75,163.812,0.942,-243.0,812.0,465.0
2020-01-19 17:54:36.400000,70.562,-14.938,167.187,0.907,-384.0,819.0,465.0
2020-01-19 17:54:36.500000,63.812,-18.0,169.312,1.017,-384.0,819.0,654.0
2020-01-19 17:54:36.600000,63.812,-18.0,169.312,1.017,-465.0,472.0,756.0
2020-01-19 17:54:36.700000,49.0,-25.75,168.687,0.93,-578.0,393.0,756.0
2020-01-19 17:54:36.800000,38.0,-28.938,166.875,1.029,-578.0,393.0,724.0
2020-01-19 17:54:36.900000,38.0,-28.938,166.875,1.029,-494.0,343.0,685.0
2020-01-19 17:54:37,34.312,-30.188,167.062,0.941,-492.0,407.0,685.0
2020-01-19 17:54:37.100000,33.5,-29.938,169.187,0.936,-492.0,407.0,757.0
2020-01-19 17:54:37.200000,33.5,-29.938,169.187,0.936,-502.0,423.0,779.0
2020-01-19 17:54:37.300000,30.875,-31.625,167.812,1.001,-526.0,303.0,779.0
2020-01-19 17:54:37.400000,30.187,-31.813,168.687,0.987,-526.0,303.0,788.0
2020-01-19 17:54:37.500000,30.187,-31.813,168.687,0.987,-547.0,323.0,695.0
2020-01-19 17:54:37.600000,28.625,-31.938,169.125,1.012,-435.0,414.0,695.0
2020-01-19 17:54:37.700000,29.437,-29.75,176.5,0.918,-435.0,414.0,695.0
2020-01-19 17:54:37.800000,29.437,-29.75,176.5,0.918,-495.0,523.0,746.0
2020-01-19 17:54:37.900000,34.937,-28.75,183.937,1.0,-602.0,328.0,746.0
2020-01-19 17:54:38,33.062,-33.875,184.75,1.013,-602.0,328.0,706.0
2020-01-19 17:54:38.100000,33.062,-33.875,184.75,1.013,-552.0,360.0,737.0
2020-01-19 17:54:38.200000,32.875,-34.0,183.937,0.965,-559.0,364.0,737.0
2020-01-19 17:54:38.300000,32.187,-34.0,182.5,0.994,-559.0,364.0,723.0
2020-01-19 17:54:38.400000,32.187,-34.0,182.5,0.994,-503.0,392.0,707.0
2020-01-19 17:54:38.500000,32.437,-31.938,182.437,0.964,-519.0,421.0,707.0
2020-01-19 17:54:38.600000,35.125,-30.938,183.25,0.972,-519.0,421.0,684.0
2020-01-19 17:54:38.700000,35.125,-30.938,183.25,0.972,-521.0,463.0,704.0
2020-01-19 17:54:38.800000,36.875,-31.625,182.687,0.976,-539.0,440.0,704.0
2020-01-19 17:54:38.900000,36.125,-33.125,182.187,0.989,-539.0,440.0,725.0
2020-01-19 17:54:39,36.125,-33.125,182.187,0.989,-568.0,395.0,636.0
2020-01-19 17:54:39.100000,34.187,-34.375,182.937,1.002,-485.0,503.0,636.0
2020-01-19 17:54:39.200000,34.5,-32.75,184.562,0.944,-485.0,503.0,739.0
2020-01-19 17:54:39.300000,34.5,-32.75,184.562,0.944,-485.0,390.0,736.0
2020-01-19 17:54:39.400000,34.875,-30.563,184.687,0.966,-507.0,411.0,736.0
2020-01-19 17:54:39.500000,34.937,-29.313,184.562,0.983,-507.0,411.0,672.0
2020-01-19 17:54:39.600000,34.937,-29.313,184.562,0.983,-447.0,533.0,666.0
2020-01-19 17:54:39.700000,37.312,-28.813,183.187,0.967,-470.0,482.0,666.0
2020-01-19 17:54:39.800000,39.437,-28.313,182.187,0.946,-470.0,482.0,670.0
2020-01-19 17:54:39.900000,39.437,-28.313,182.187,0.946,-483.0,517.0,678.0
2020-01-19 17:54:40,40.375,-28.563,183.187,0.974,-502.0,527.0,678.0
2020-01-19 17:54:40.100000,39.687,-30.063,185.312,0.994,-502.0,527.0,663.0
2020-01-19 17:54:40.200000,39.687,-30.063,185.312,0.994,-488.0,495.0,658.0
2020-01-19 17:54:40.300000,38.687,-30.688,185.812,0.96,-479.0,533.0,658.0
2020-01-19 17:54:40.400000,38.5,-30.5,186.437,0.972,-479.0,533.0,686.0
2020-01-19 17:54:40.500000,38.5,-30.5,186.437,0.972,-498.0,455.0,708.0
2020-01-19 17:54:40.600000,38.5,-29.813,187.562,0.962,-505.0,437.0,708.0
2020-01-19 17:54:40.700000,34.625,-30.563,188.125,0.973,-505.0,437.0,708.0
2020-01-19 17:54:40.800000,34.625,-30.563,188.125,0.973,-505.0,453.0,667.0
2020-01-19 17:54:40.900000,35.25,-30.0,187.187,0.98,-497.0,453.0,667.0
2020-01-19 17:54:41,35.812,-30.688,187.875,0.947,-497.0,453.0,679.0
2020-01-19 17:54:41.100000,35.812,-30.688,187.875,0.947,-521.0,464.0,674.0
2020-01-19 17:54:41.200000,35.937,-31.375,188.5,0.973,-553.0,478.0,674.0
2020-01-19 17:54:41.300000,35.062,-33.563,188.75,0.994,-553.0,478.0,657.0
2020-01-19 17:54:41.400000,35.062,-33.563,188.75,0.994,-573.0,431.0,647.0
2020-01-19 17:54:41.500000,36.062,-34.625,188.875,0.972,-557.0,466.0,647.0
2020-01-19 17:54:41.600000,36.5,-34.938,189.062,0.972,-557.0,466.0,650.0
2020-01-19 17:54:41.700000,36.5,-34.938,189.062,0.972,-583.0,441.0,642.0
2020-01-19 17:54:41.800000,36.875,-35.938,189.937,0.978,-584.0,474.0,642.0
2020-01-19 17:54:41.900000,37.437,-36.188,190.062,0.988,-584.0,474.0,643.0
2020-01-19 17:54:42,37.437,-36.188,190.062,0.988,-594.0,455.0,630.0
2020-01-19 17:54:42.100000,36.875,-36.313,190.75,0.986,-565.0,502.0,630.0
2020-01-19 17:54:42.200000,37.125,-36.625,192.625,0.983,-565.0,502.0,658.0
2020-01-19 17:54:42.300000,37.125,-36.625,192.625,0.983,-570.0,402.0,463.0
2020-01-19 17:54:42.400000,38.187,-35.188,193.437,0.958,-515.0,566.0,463.0
2020-01-19 17:54:42.500000,36.125,-35.375,195.5,0.894,-515.0,566.0,722.0
2020-01-19 17:54:42.600000,36.125,-35.375,195.5,0.894,-590.0,450.0,618.0
2020-01-19 17:54:42.700000,37.562,-35.125,195.687,1.035,-575.0,498.0,618.0
2020-01-19 17:54:42.800000,36.375,-36.188,195.625,0.98,-575.0,498.0,580.0
2020-01-19 17:54:42.900000,36.375,-36.188,195.625,0.98,-537.0,488.0,583.0
2020-01-19 17:54:43,38.562,-34.5,195.625,0.928,-538.0,552.0,552.0
2020-01-19 17:54:43.100000,42.0,-33.313,196.125,0.966,-558.0,516.0,552.0
2020-01-19 17:54:43.200000,44.062,-33.75,195.75,0.939,-558.0,516.0,584.0
2020-01-19 17:54:43.300000,44.062,-33.75,195.75,0.939,-584.0,537.0,596.0
2020-01-19 17:54:43.400000,44.562,-34.438,195.062,0.985,-582.0,521.0,596.0
2020-01-19 17:54:43.500000,44.437,-35.75,194.187,0.982,-582.0,521.0,572.0
2020-01-19 17:54:43.600000,44.437,-35.75,194.187,0.982,-574.0,526.0,552.0
2020-01-19 17:54:43.700000,44.187,-35.875,194.687,0.966,-565.0,557.0,552.0
2020-01-19 17:54:43.800000,44.562,-35.5,195.062,0.966,-565.0,557.0,555.0
2020-01-19 17:54:43.900000,44.562,-35.5,195.062,0.966,-564.0,554.0,541.0
2020-01-19 17:54:44,46.687,-34.438,195.687,0.965,-540.0,571.0,541.0
2020-01-19 17:54:44.100000,47.375,-33.438,197.25,0.954,-540.0,571.0,361.0
2020-01-19 17:54:44.200000,47.375,-33.438,197.25,0.954,-538.0,621.0,217.0
2020-01-19 17:54:44.300000,50.937,-32.438,198.937,0.897,-479.0,836.0,217.0
2020-01-19 17:54:44.400000,67.937,-30.438,203.25,0.987,-479.0,836.0,223.0
2020-01-19 17:54:44.500000,67.937,-30.438,203.25,0.987,-505.0,743.0,197.0
2020-01-19 17:54:44.600000,69.812,-30.563,202.0,0.925,-493.0,723.0,197.0
2020-01-19 17:54:44.700000,71.25,-30.313,201.312,0.896,-493.0,723.0,252.0
2020-01-19 17:54:44.800000,71.25,-30.313,201.312,0.896,-517.0,702.0,162.0
2020-01-19 17:54:44.900000,70.937,-32.438,201.312,0.907,-510.0,775.0,162.0
2020-01-19 17:54:45,71.437,-32.188,199.625,0.941,-510.0,775.0,152.0
2020-01-19 17:54:45.100000,71.437,-32.188,199.625,0.941,-497.0,706.0,140.0
2020-01-19 17:54:45.200000,72.937,-31.625,198.625,0.876,-493.0,826.0,140.0
2020-01-19 17:54:45.300000,75.375,-31.25,199.312,0.972,-493.0,826.0,285.0
2020-01-19 17:54:45.400000,75.375,-31.25,199.312,0.972,-540.0,719.0,199.0
2020-01-19 17:54:45.500000,71.687,-31.688,197.875,0.943,-490.0,680.0,199.0
2020-01-19 17:54:45.600000,67.312,-31.0,196.687,0.861,-490.0,680.0,329.0
2020-01-19 17:54:45.700000,67.312,-31.0,196.687,0.861,-502.0,817.0,398.0
2020-01-19 17:54:45.800000,66.937,-32.313,194.437,1.013,-591.0,576.0,398.0
2020-01-19 17:54:45.900000,62.687,-33.438,190.312,0.916,-591.0,576.0,470.0
2020-01-19 17:54:46,62.687,-33.438,190.312,0.916,-573.0,642.0,361.0
2020-01-19 17:54:46.100000,56.0,-35.75,188.687,0.98,-537.0,683.0,361.0
2020-01-19 17:54:46.200000,55.312,-36.188,189.125,0.94,-537.0,683.0,462.0
2020-01-19 17:54:46.300000,55.312,-36.188,189.125,0.94,-539.0,576.0,382.0
2020-01-19 17:54:46.400000,57.875,-34.875,188.5,0.914,-521.0,726.0,382.0
2020-01-19 17:54:46.500000,55.25,-35.5,190.562,0.971,-521.0,726.0,409.0
2020-01-19 17:54:46.600000,55.25,-35.5,190.562,0.971,-541.0,630.0,546.0
2020-01-19 17:54:46.700000,59.937,-33.0,191.187,0.925,-591.0,589.0,546.0
2020-01-19 17:54:46.800000,47.5,-36.375,189.0,0.997,-591.0,589.0,513.0
2020-01-19 17:54:46.900000,47.5,-36.375,189.0,0.997,-589.0,536.0,448.0
2020-01-19 17:54:47,48.062,-36.938,190.062,0.947,-547.0,638.0,448.0
2020-01-19 17:54:47.100000,48.875,-35.75,190.5,0.952,-547.0,638.0,553.0
2020-01-19 17:54:47.200000,48.875,-35.75,190.5,0.952,-573.0,624.0,486.0
2020-01-19 17:54:47.300000,51.562,-35.313,189.375,1.011,-544.0,554.0,486.0
2020-01-19 17:54:47.400000,47.937,-35.188,189.937,0.915,-544.0,554.0,532.0
2020-01-19 17:54:47.500000,47.937,-35.188,189.937,0.915,-563.0,616.0,541.0
2020-01-19 17:54:47.600000,48.875,-34.938,189.312,0.989,-566.0,578.0,541.0
2020-01-19 17:54:47.700000,46.937,-35.75,190.187,0.973,-566.0,578.0,498.0
2020-01-19 17:54:47.800000,46.937,-35.75,190.187,0.973,-486.0,613.0,548.0
2020-01-19 17:54:47.900000,49.5,-34.5,190.625,0.927,-576.0,507.0,548.0
2020-01-19 17:54:48,44.062,-34.563,193.312,0.942,-576.0,507.0,559.0
2020-01-19 17:54:48.100000,44.062,-34.563,193.312,0.942,-542.0,620.0,464.0
2020-01-19 17:54:48.200000,49.125,-34.25,194.125,0.995,-524.0,453.0,464.0
2020-01-19 17:54:48.300000,50.312,-32.25,196.0,0.833,-524.0,453.0,502.0
2020-01-19 17:54:48.400000,50.312,-32.25,196.0,0.833,-518.0,616.0,503.0
2020-01-19 17:54:48.500000,50.062,-33.063,198.687,0.948,-529.0,571.0,503.0
2020-01-19 17:54:48.600000,49.375,-33.938,200.75,0.926,-529.0,571.0,556.0
2020-01-19 17:54:48.700000,49.375,-33.938,200.75,0.926,-550.0,556.0,522.0
2020-01-19 17:54:48.800000,47.437,-33.625,200.312,0.959,-533.0,565.0,522.0
2020-01-19 17:54:48.900000,46.75,-34.0,201.062,0.935,-533.0,565.0,523.0
2020-01-19 17:54:49,46.75,-34.0,201.062,0.935,-536.0,567.0,533.0
2020-01-19 17:54:49.100000,47.5,-33.563,201.375,0.939,-531.0,603.0,533.0
2020-01-19 17:54:49.200000,47.187,-33.75,201.125,0.964,-531.0,603.0,479.0
2020-01-19 17:54:49.300000,47.187,-33.75,201.125,0.964,-517.0,564.0,472.0
2020-01-19 17:54:49.400000,49.625,-33.0,202.062,0.902,-527.0,668.0,472.0
2020-01-19 17:54:49.500000,51.937,-32.5,202.5,0.973,-527.0,668.0,475.0
2020-01-19 17:54:49.600000,51.937,-32.5,202.5,0.973,-532.0,573.0,432.0
2020-01-19 17:54:49.700000,51.125,-33.063,204.687,0.914,-524.0,678.0,432.0
2020-01-19 17:54:49.800000,52.687,-33.5,204.437,0.959,-524.0,678.0,442.0
2020-01-19 17:54:49.900000,52.687,-33.5,204.437,0.959,-557.0,627.0,478.0
2020-01-19 17:54:50,53.687,-34.438,204.75,0.948,-585.0,629.0,478.0
2020-01-19 17:54:50.100000,51.312,-35.75,203.875,0.983,-585.0,629.0,494.0
2020-01-19 17:54:50.200000,51.312,-35.75,203.875,0.983,-597.0,550.0,401.0
2020-01-19 17:54:50.300000,50.937,-37.0,204.062,0.95,-563.0,610.0,401.0
2020-01-19 17:54:50.400000,51.5,-36.375,201.0,0.921,-563.0,610.0,411.0
2020-01-19 17:54:50.500000,51.5,-36.375,201.0,0.921,-562.0,610.0,493.0
2020-01-19 17:54:50.600000,56.687,-36.25,202.812,0.925,-580.0,574.0,493.0
2020-01-19 17:54:50.700000,55.187,-36.375,203.062,0.953,-580.0,574.0,503.0
2020-01-19 17:54:50.800000,55.187,-36.375,203.062,0.953,-559.0,565.0,454.0
2020-01-19 17:54:50.900000,47.437,-36.438,202.937,0.94,-563.0,616.0,454.0
2020-01-19 17:54:51,48.625,-35.375,204.062,0.95,-563.0,616.0,455.0
2020-01-19 17:54:51.100000,48.625,-35.375,204.062,0.95,-574.0,643.0,445.0
2020-01-19 17:54:51.200000,53.125,-35.313,203.562,0.974,-586.0,569.0,445.0
2020-01-19 17:54:51.300000,51.312,-36.438,203.25,0.93,-586.0,569.0,501.0
2020-01-19 17:54:51.400000,51.312,-36.438,203.25,0.93,-599.0,584.0,489.0
2020-01-19 17:54:51.500000,49.125,-37.313,204.125,0.975,-612.0,610.0,489.0
2020-01-19 17:54:51.600000,48.562,-38.813,206.437,0.992,-612.0,610.0,384.0
2020-01-19 17:54:51.700000,48.562,-38.813,206.437,0.992,-599.0,584.0,253.0
2020-01-19 17:54:51.800000,52.5,-37.438,208.187,0.92,-587.0,830.0,253.0
2020-01-19 17:54:51.900000,58.375,-37.188,211.687,1.047,-587.0,830.0,393.0
2020-01-19 17:54:52,58.375,-37.188,211.687,1.047,-617.0,436.0,427.0
2020-01-19 17:54:52.100000,57.625,-36.063,211.937,0.851,-573.0,651.0,427.0
2020-01-19 17:54:52.200000,52.75,-37.25,214.0,0.966,-573.0,651.0,427.0
2020-01-19 17:54:52.300000,52.75,-37.25,214.0,0.966,-553.0,617.0,443.0
2020-01-19 17:54:52.400000,50.625,-37.75,208.625,0.932,-558.0,575.0,443.0
2020-01-19 17:54:52.500000,53.437,-35.375,205.5,0.915,-558.0,575.0,396.0
2020-01-19 17:54:52.600000,53.437,-35.375,205.5,0.915,-540.0,636.0,375.0
2020-01-19 17:54:52.700000,53.625,-34.563,205.312,0.923,-547.0,632.0,375.0
2020-01-19 17:54:52.800000,62.562,-33.25,203.937,0.916,-547.0,632.0,306.0
2020-01-19 17:54:52.900000,62.562,-33.25,203.937,0.916,-528.0,767.0,340.0
2020-01-19 17:54:53,58.375,-34.75,208.562,0.98,-547.0,735.0,340.0
2020-01-19 17:54:53.100000,64.375,-35.0,208.125,0.977,-547.0,735.0,222.0
2020-01-19 17:54:53.200000,64.375,-35.0,208.125,0.977,-501.0,764.0,282.0
2020-01-19 17:54:53.300000,66.812,-33.375,207.375,0.94,-476.0,762.0,282.0
2020-01-19 17:54:53.400000,66.937,-31.75,206.687,0.941,-476.0,762.0,269.0
2020-01-19 17:54:53.500000,66.937,-31.75,206.687,0.941,-486.0,718.0,360.0
2020-01-19 17:54:53.600000,64.375,-29.813,203.25,0.907,-486.0,733.0,360.0
2020-01-19 17:54:53.700000,65.625,-30.063,203.125,0.95,-486.0,733.0,220.0
2020-01-19 17:54:53.800000,65.625,-30.063,203.125,0.95,-441.0,727.0,217.0
2020-01-19 17:54:53.900000,65.937,-30.25,203.687,0.878,-474.0,784.0,217.0
2020-01-19 17:54:54,69.875,-29.563,204.062,0.941,-474.0,784.0,143.0
2020-01-19 17:54:54.100000,69.875,-29.563,204.062,0.941,-449.0,851.0,125.0
2020-01-19 17:54:54.200000,73.312,-30.688,203.5,0.972,-454.0,787.0,125.0
2020-01-19 17:54:54.300000,76.625,-29.563,203.875,0.917,-454.0,787.0,111.0
2020-01-19 17:54:54.400000,76.625,-29.563,203.875,0.917,-459.0,799.0,-24.0
2020-01-19 17:54:54.500000,77.562,-29.0,202.125,0.928,-398.0,893.0,-24.0
2020-01-19 17:54:54.600000,81.437,-27.875,202.437,0.977,-398.0,893.0,175.0
2020-01-19 17:54:54.700000,81.437,-27.875,202.437,0.977,-447.0,757.0,82.0
2020-01-19 17:54:54.800000,79.75,-27.125,199.25,0.896,-405.0,823.0,82.0
2020-01-19 17:54:54.900000,76.75,-26.625,196.625,0.92,-405.0,823.0,228.0
2020-01-19 17:54:55,76.75,-26.625,196.625,0.92,-450.0,839.0,62.0
2020-01-19 17:54:55.100000,77.375,-27.563,197.75,0.978,-383.0,851.0,62.0
2020-01-19 17:54:55.200000,75.625,-28.25,200.625,0.935,-383.0,851.0,182.0
2020-01-19 17:54:55.300000,75.625,-28.25,200.625,0.935,-454.0,743.0,155.0
2020-01-19 17:54:55.400000,74.375,-27.938,200.375,0.889,-437.0,825.0,155.0
2020-01-19 17:54:55.500000,74.25,-28.188,200.25,0.946,-437.0,825.0,125.0
2020-01-19 17:54:55.600000,74.25,-28.188,200.25,0.946,-441.0,810.0,87.0
2020-01-19 17:54:55.700000,75.187,-29.313,200.812,0.93,-426.0,852.0,87.0
2020-01-19 17:54:55.800000,78.937,-28.688,199.937,0.956,-426.0,852.0,42.0
2020-01-19 17:54:55.900000,78.937,-28.688,199.937,0.956,-398.0,834.0,-1.0
2020-01-19 17:54:56,82.187,-27.0,200.562,0.925,-391.0,807.0,-1.0
2020-01-19 17:54:56.100000,83.187,-26.25,200.75,0.896,-391.0,807.0,76.0
2020-01-19 17:54:56.200000,83.187,-26.25,200.75,0.896,-435.0,818.0,-35.0
2020-01-19 17:54:56.300000,84.937,-26.5,200.5,0.929,-417.0,845.0,-35.0
2020-01-19 17:54:56.400000,84.687,-27.438,201.875,0.942,-417.0,845.0,-55.0
2020-01-19 17:54:56.500000,84.687,-27.438,201.875,0.942,-395.0,863.0,10.0
2020-01-19 17:54:56.600000,86.5,-27.375,203.375,0.95,-383.0,856.0,10.0
2020-01-19 17:54:56.700000,84.812,-25.813,201.5,0.937,-383.0,856.0,44.0
2020-01-19 17:54:56.800000,84.812,-25.813,201.5,0.937,-382.0,834.0,75.0
2020-01-19 17:54:56.900000,82.875,-25.0,199.687,0.918,-365.0,831.0,75.0
2020-01-19 17:54:57,83.937,-23.875,199.937,0.91,-365.0,831.0,36.0
2020-01-19 17:54:57.100000,83.937,-23.875,199.937,0.91,-361.0,821.0,82.0
2020-01-19 17:54:57.200000,82.062,-23.563,200.125,0.897,-384.0,891.0,82.0
2020-01-19 17:54:57.300000,79.437,-24.938,200.812,0.973,-384.0,891.0,17.0
2020-01-19 17:54:57.400000,79.437,-24.938,200.812,0.973,-365.0,844.0,7.0
2020-01-19 17:54:57.500000,83.437,-25.188,203.0,0.919,-373.0,804.0,7.0
2020-01-19 17:54:57.600000,84.125,-23.563,202.5,0.886,-373.0,804.0,-73.0
2020-01-19 17:54:57.700000,84.125,-23.563,202.5,0.886,-343.0,840.0,-100.0
2020-01-19 17:54:57.800000,87.125,-22.938,203.312,0.91,-363.0,872.0,-100.0
2020-01-19 17:54:57.900000,89.562,-24.25,205.062,0.949,-363.0,872.0,-110.0
2020-01-19 17:54:58,89.562,-24.25,205.062,0.949,-356.0,854.0,-209.0
2020-01-19 17:54:58.100000,92.312,-23.813,205.375,0.931,-277.0,792.0,-209.0
2020-01-19 17:54:58.200000,95.5,-21.688,206.187,0.864,-277.0,792.0,-235.0
2020-01-19 17:54:58.300000,95.5,-21.688,206.187,0.864,-300.0,862.0,-54.0
2020-01-19 17:54:58.400000,98.375,-19.5,206.562,0.942,-411.0,573.0,-54.0
2020-01-19 17:54:58.500000,100.437,-19.563,207.062,0.707,-411.0,573.0,-358.0
2020-01-19 17:54:58.600000,100.437,-19.563,207.062,0.707,-253.0,1072.0,-97.0
2020-01-19 17:54:58.700000,93.125,-24.063,207.062,1.158,-307.0,863.0,-97.0
2020-01-19 17:54:58.800000,93.875,-22.25,205.125,0.921,-307.0,863.0,-145.0
2020-01-19 17:54:58.900000,93.875,-22.25,205.125,0.921,-281.0,803.0,-196.0
2020-01-19 17:54:59,94.25,-18.375,203.0,0.863,-235.0,900.0,-196.0
2020-01-19 17:54:59.100000,98.25,-15.813,203.312,0.95,-235.0,900.0,-174.0
2020-01-19 17:54:59.200000,98.25,-15.813,203.312,0.95,-200.0,878.0,-112.0
2020-01-19 17:54:59.300000,96.937,-14.938,203.937,0.917,-229.0,889.0,-112.0
2020-01-19 17:54:59.400000,92.312,-15.0,204.75,0.924,-229.0,889.0,-150.0
2020-01-19 17:54:59.500000,92.312,-15.0,204.75,0.924,-226.0,878.0,-82.0
2020-01-19 17:54:59.600000,92.625,-14.75,208.0,0.918,-208.0,872.0,-82.0
2020-01-19 17:54:59.700000,91.687,-14.0,209.875,0.9,-208.0,872.0,-94.0
2020-01-19 17:54:59.800000,91.687,-14.0,209.875,0.9,-224.0,856.0,-124.0
2020-01-19 17:54:59.900000,89.312,-14.625,211.25,0.889,-186.0,898.0,-124.0
2020-01-19 17:55:00,87.875,-15.063,212.937,0.925,-186.0,898.0,-17.0
2020-01-19 17:55:00.100000,87.875,-15.063,212.937,0.925,-194.0,898.0,86.0
2020-01-19 17:55:00.200000,87.0,-14.0,210.937,0.918,-225.0,882.0,297.0
2020-01-19 17:55:00.300000,81.062,-14.75,208.937,0.914,-264.0,895.0,297.0
2020-01-19 17:55:00.400000,73.375,-16.875,206.625,0.979,-264.0,895.0,434.0
2020-01-19 17:55:00.500000,73.375,-16.875,206.625,0.979,-302.0,643.0,304.0
2020-01-19 17:55:00.600000,59.687,-19.125,205.312,0.832,-318.0,875.0,304.0
2020-01-19 17:55:00.700000,62.125,-20.313,201.125,0.979,-318.0,875.0,287.0
2020-01-19 17:55:00.800000,62.125,-20.313,201.125,0.979,-319.0,851.0,319.0
2020-01-19 17:55:00.900000,67.812,-20.5,201.687,0.953,-319.0,795.0,319.0
2020-01-19 17:55:01,65.5,-21.125,201.937,0.914,-319.0,795.0,329.0
2020-01-19 17:55:01.100000,65.5,-21.125,201.937,0.914,-277.0,872.0,366.0
2020-01-19 17:55:01.200000,64.5,-21.063,201.875,0.972,-366.0,789.0,366.0
2020-01-19 17:55:01.300000,60.437,-21.375,198.937,0.943,-366.0,789.0,513.0
2020-01-19 17:55:01.400000,60.437,-21.375,198.937,0.943,-372.0,634.0,327.0
2020-01-19 17:55:01.500000,61.25,-22.25,196.0,0.896,-355.0,846.0,327.0
2020-01-19 17:55:01.600000,56.062,-25.375,195.375,0.973,-355.0,846.0,426.0
2020-01-19 17:55:01.700000,56.062,-25.375,195.375,0.973,-393.0,686.0,457.0
2020-01-19 17:55:01.800000,58.25,-27.0,194.437,0.898,-473.0,720.0,457.0
2020-01-19 17:55:01.900000,62.062,-26.25,194.312,0.975,-473.0,720.0,305.0
2020-01-19 17:55:02,62.062,-26.25,194.312,0.975,-339.0,735.0,496.0
2020-01-19 17:55:02.100000,59.812,-26.375,195.937,0.864,-489.0,701.0,496.0
2020-01-19 17:55:02.200000,57.187,-27.875,192.312,0.988,-489.0,701.0,453.0
2020-01-19 17:55:02.300000,57.187,-27.875,192.312,0.988,-330.0,675.0,541.0
2020-01-19 17:55:02.400000,54.187,-27.438,192.0,0.877,-464.0,708.0,541.0
2020-01-19 17:55:02.500000,51.687,-27.438,196.937,1.004,-464.0,708.0,590.0
2020-01-19 17:55:02.600000,51.687,-27.438,196.937,1.004,-398.0,513.0,309.0
2020-01-19 17:55:02.700000,49.687,-26.0,197.812,0.877,-382.0,799.0,309.0
2020-01-19 17:55:02.800000,52.687,-27.25,199.687,0.937,-382.0,799.0,465.0
2020-01-19 17:55:02.900000,52.687,-27.25,199.687,0.937,-425.0,794.0,464.0
2020-01-19 17:55:03,55.375,-27.563,200.562,1.013,-435.0,652.0,464.0
2020-01-19 17:55:03.100000,55.375,-27.563,199.437,0.91,-435.0,652.0,289.0
2020-01-19 17:55:03.200000,55.375,-27.563,199.437,0.91,-355.0,783.0,537.0
2020-01-19 17:55:03.300000,55.937,-28.188,199.5,0.906,-470.0,730.0,537.0
2020-01-19 17:55:03.400000,56.375,-29.688,196.75,1.02,-470.0,730.0,482.0
2020-01-19 17:55:03.500000,56.375,-29.688,196.75,1.02,-496.0,754.0,404.0
2020-01-19 17:55:03.600000,55.375,-31.688,194.625,1.023,-520.0,681.0,404.0
2020-01-19 17:55:03.700000,53.812,-30.313,193.312,0.947,-520.0,681.0,471.0
2020-01-19 17:55:03.800000,53.812,-30.313,193.312,0.947,-544.0,583.0,523.0
2020-01-19 17:55:03.900000,52.187,-28.875,189.687,0.926,-535.0,580.0,523.0
2020-01-19 17:55:04,47.75,-32.125,183.625,0.946,-535.0,580.0,446.0
2020-01-19 17:55:04.100000,47.75,-32.125,183.625,0.946,-545.0,671.0,379.0
2020-01-19 17:55:04.200000,51.062,-37.563,182.75,0.972,-633.0,547.0,379.0
2020-01-19 17:55:04.300000,53.062,-43.375,183.625,0.918,-633.0,547.0,345.0
2020-01-19 17:55:04.400000,53.062,-43.375,183.625,0.918,-714.0,601.0,392.0
2020-01-19 17:55:04.500000,51.625,-51.0,183.937,0.994,-762.0,477.0,392.0
2020-01-19 17:55:04.600000,57.687,-55.688,180.187,0.98,-762.0,477.0,171.0
2020-01-19 17:55:04.700000,57.687,-55.688,180.187,0.98,-942.0,516.0,88.0
2020-01-19 17:55:04.800000,64.375,-56.25,175.812,1.087,-1252.0,667.0,88.0
2020-01-19 17:55:04.900000,76.875,-58.625,174.687,1.421,-1252.0,667.0,-31.0
2020-01-19 17:55:05,76.875,-58.625,174.687,1.421,-790.0,430.0,-278.0
2020-01-19 17:55:05.100000,96.75,-63.438,158.0,0.899,-728.0,492.0,-278.0
2020-01-19 17:55:05.200000,112.437,-65.625,149.875,0.921,-728.0,492.0,-180.0
2020-01-19 17:55:05.300000,112.437,-65.625,149.875,0.921,-889.0,501.0,-11.0
2020-01-19 17:55:05.400000,101.062,-69.438,161.75,1.036,-891.0,358.0,-11.0
2020-01-19 17:55:05.500000,96.312,-66.5,168.125,0.96,-891.0,358.0,30.0
2020-01-19 17:55:05.600000,96.312,-66.5,168.125,0.96,-882.0,447.0,-2.0
2020-01-19 17:55:05.700000,100.937,-61.875,172.062,0.989,-712.0,390.0,-2.0
2020-01-19 17:55:05.800000,86.062,-60.5,193.562,0.811,-712.0,390.0,89.0
2020-01-19 17:55:05.900000,86.062,-60.5,193.562,0.811,-533.0,419.0,158.0
2020-01-19 17:55:06,77.437,-52.063,202.562,0.683,-542.0,521.0,158.0
2020-01-19 17:55:06.100000,73.937,-49.125,208.625,0.768,-542.0,521.0,290.0
2020-01-19 17:55:06.200000,73.937,-49.125,208.625,0.768,-1045.0,648.0,160.0
2020-01-19 17:55:06.300000,73.0,-51.125,223.687,1.263,-862.0,470.0,160.0
2020-01-19 17:55:06.400000,67.0,-54.0,230.812,0.994,-862.0,470.0,-3.0
2020-01-19 17:55:06.500000,67.0,-54.0,230.812,0.994,-736.0,576.0,-10.0
2020-01-19 17:55:06.600000,69.25,-45.75,242.625,0.934,-584.0,770.0,-10.0
2020-01-19 17:55:06.700000,74.062,-36.688,255.125,0.966,-584.0,770.0,99.0
2020-01-19 17:55:06.800000,74.062,-36.688,255.125,0.966,-422.0,796.0,0.0
2020-01-19 17:55:06.900000,77.187,-27.813,262.687,0.906,-335.0,813.0,0.0
2020-01-19 17:55:07,77.687,-20.813,266.937,0.879,-335.0,813.0,5.0
2020-01-19 17:55:07.100000,77.687,-20.813,266.937,0.879,-481.0,867.0,125.0
2020-01-19 17:55:07.200000,85.187,-18.438,273.687,0.991,-526.0,771.0,125.0
2020-01-19 17:55:07.300000,87.25,-18.75,278.937,0.941,-526.0,771.0,166.0
2020-01-19 17:55:07.400000,87.25,-18.75,278.937,0.941,-347.0,818.0,320.0
2020-01-19 17:55:07.500000,81.5,-17.438,283.625,0.903,-250.0,847.0,320.0
2020-01-19 17:55:07.600000,73.437,-14.75,287.687,0.939,-250.0,847.0,296.0
2020-01-19 17:55:07.700000,73.437,-14.75,287.687,0.939,-204.0,881.0,280.0
2020-01-19 17:55:07.800000,74.937,-10.063,292.75,0.951,-238.0,781.0,280.0
2020-01-19 17:55:07.900000,65.062,-10.813,291.062,0.863,-238.0,781.0,295.0
2020-01-19 17:55:08,65.062,-10.813,291.062,0.863,-244.0,748.0,397.0
2020-01-19 17:55:08.100000,67.937,-10.063,292.0,0.84,-310.0,793.0,397.0
2020-01-19 17:55:08.200000,64.062,-11.5,292.125,0.939,-310.0,793.0,513.0
2020-01-19 17:55:08.300000,64.062,-11.5,292.125,0.939,-481.0,811.0,470.0
2020-01-19 17:55:08.400000,61.5,-13.75,295.437,1.073,-535.0,653.0,470.0
2020-01-19 17:55:08.500000,54.062,-18.563,299.687,0.966,-535.0,653.0,693.0
2020-01-19 17:55:08.600000,54.062,-18.563,299.687,0.966,-373.0,494.0,625.0
2020-01-19 17:55:08.700000,47.5,-19.875,304.437,0.929,-267.0,646.0,625.0
2020-01-19 17:55:08.800000,46.312,-16.188,303.437,0.937,-267.0,646.0,485.0
2020-01-19 17:55:08.900000,46.312,-16.188,303.437,0.937,-254.0,877.0,427.0
2020-01-19 17:55:09,50.937,-9.25,299.187,1.033,-188.0,761.0,427.0
2020-01-19 17:55:09.100000,52.812,-5.063,292.625,0.892,-188.0,761.0,611.0
2020-01-19 17:55:09.200000,52.812,-5.063,292.625,0.892,-155.0,615.0,613.0
2020-01-19 17:55:09.300000,47.687,-5.563,285.875,0.88,-241.0,766.0,613.0
2020-01-19 17:55:09.400000,43.187,-6.938,282.5,1.01,-241.0,766.0,534.0
2020-01-19 17:55:09.500000,43.187,-6.938,282.5,1.01,-281.0,599.0,667.0
2020-01-19 17:55:09.600000,50.437,-5.438,281.875,0.85,-369.0,618.0,667.0
2020-01-19 17:55:09.700000,39.812,-7.813,280.75,0.981,-369.0,618.0,695.0
2020-01-19 17:55:09.800000,39.812,-7.813,280.75,0.981,-280.0,499.0,644.0
2020-01-19 17:55:09.900000,41.875,-7.75,283.25,0.9,-317.0,644.0,644.0
2020-01-19 17:55:10,41.625,-8.188,282.562,0.964,-317.0,644.0,621.0
2020-01-19 17:55:10.100000,41.625,-8.188,282.562,0.964,-267.0,712.0,582.0
2020-01-19 17:55:10.200000,41.75,-8.438,278.5,0.981,-205.0,685.0,582.0
2020-01-19 17:55:10.300000,43.0,-7.438,273.562,0.921,-205.0,685.0,577.0
2020-01-19 17:55:10.400000,43.0,-7.438,273.562,0.921,-154.0,715.0,646.0
2020-01-19 17:55:10.500000,45.062,-6.438,270.25,0.931,-198.0,542.0,646.0
2020-01-19 17:55:10.600000,44.5,-7.438,266.937,0.866,-198.0,542.0,776.0
2020-01-19 17:55:10.700000,44.5,-7.438,266.937,0.866,-214.0,634.0,666.0
2020-01-19 17:55:10.800000,39.937,-9.125,266.125,1.024,-163.0,575.0,666.0
2020-01-19 17:55:10.900000,32.437,-8.438,269.562,0.894,-163.0,575.0,656.0
2020-01-19 17:55:11,32.437,-8.438,269.562,0.894,-168.0,601.0,848.0
2020-01-19 17:55:11.100000,39.312,-6.625,271.625,0.905,-285.0,461.0,848.0
2020-01-19 17:55:11.200000,42.75,-8.563,269.812,1.006,-285.0,461.0,141.0
2020-01-19 17:55:11.300000,42.75,-8.563,269.812,1.006,-251.0,976.0,142.0
2020-01-19 17:55:11.400000,51.625,-10.75,269.625,1.017,-293.0,964.0,142.0
2020-01-19 17:55:11.500000,70.812,-13.063,271.75,1.017,-293.0,964.0,421.0
2020-01-19 17:55:11.600000,70.812,-13.063,271.75,1.017,-458.0,690.0,115.0
2020-01-19 17:55:11.700000,60.25,-18.313,263.312,0.929,-468.0,789.0,115.0
2020-01-19 17:55:11.800000,73.25,-21.688,263.375,0.924,-468.0,789.0,-26.0
2020-01-19 17:55:11.900000,73.25,-21.688,263.375,0.924,-650.0,779.0,144.0
2020-01-19 17:55:12,73.125,-27.313,259.5,1.014,-637.0,682.0,144.0
2020-01-19 17:55:12.100000,73.5,-36.188,248.5,0.944,-637.0,682.0,132.0
2020-01-19 17:55:12.200000,73.5,-36.188,248.5,0.944,-633.0,812.0,-92.0
2020-01-19 17:55:12.300000,77.875,-40.938,246.25,1.038,-691.0,706.0,-92.0
2020-01-19 17:55:12.400000,72.937,-44.313,247.812,0.992,-691.0,706.0,-57.0
2020-01-19 17:55:12.500000,72.937,-44.313,247.812,0.992,-775.0,541.0,52.0
2020-01-19 17:55:12.600000,73.75,-46.688,245.25,0.946,-783.0,683.0,52.0
2020-01-19 17:55:12.700000,74.625,-46.5,238.625,1.04,-783.0,683.0,50.0
2020-01-19 17:55:12.800000,74.625,-46.5,238.625,1.04,-737.0,765.0,150.0
2020-01-19 17:55:12.900000,77.125,-43.0,246.0,1.063,-714.0,515.0,150.0
2020-01-19 17:55:13,73.25,-36.25,253.562,0.893,-714.0,515.0,186.0
2020-01-19 17:55:13.100000,73.25,-36.25,253.562,0.893,-511.0,763.0,353.0
2020-01-19 17:55:13.200000,67.25,-31.5,255.062,0.936,-258.0,797.0,353.0
2020-01-19 17:55:13.300000,69.312,-29.75,265.5,0.909,-258.0,797.0,318.0
2020-01-19 17:55:13.400000,69.312,-29.75,265.5,0.909,-385.0,885.0,237.0
2020-01-19 17:55:13.500000,71.312,-26.313,275.0,1.016,-387.0,778.0,237.0
2020-01-19 17:55:13.600000,72.25,-21.688,279.062,0.9,-387.0,778.0,117.0
2020-01-19 17:55:13.700000,72.25,-21.688,279.062,0.9,-490.0,523.0,-79.0
2020-01-19 17:55:13.800000,71.812,-17.188,280.75,0.726,-895.0,614.0,-79.0
2020-01-19 17:55:13.900000,81.125,-27.063,283.625,1.088,-895.0,614.0,31.0
2020-01-19 17:55:14,81.125,-27.063,283.625,1.088,-1172.0,392.0,-116.0
2020-01-19 17:55:14.100000,85.625,-51.375,288.687,1.236,-413.0,1379.0,-116.0
2020-01-19 17:55:14.200000,75.812,-78.375,307.0,1.444,-413.0,1379.0,-511.0
2020-01-19 17:55:14.300000,75.812,-78.375,307.0,1.444,-2298.0,1698.0,-358.0
2020-01-19 17:55:14.400000,94.437,-70.625,291.312,2.902,-1076.0,-188.0,-358.0
2020-01-19 17:55:14.500000,72.812,4.312,275.562,1.149,-1076.0,-188.0,172.0
2020-01-19 17:55:14.600000,72.812,4.312,275.562,1.149,301.0,404.0,434.0
2020-01-19 17:55:14.700000,63.375,27.375,275.375,0.532,-7.0,875.0,434.0
2020-01-19 17:55:14.800000,63.687,14.562,277.625,0.976,-7.0,875.0,362.0
2020-01-19 17:55:14.900000,63.687,14.562,277.625,0.976,-190.0,601.0,32.0
2020-01-19 17:55:15,66.437,-0.813,274.75,0.726,-816.0,892.0,32.0
2020-01-19 17:55:15.100000,81.0,-25.5,264.5,1.209,-816.0,892.0,-303.0
2020-01-19 17:55:15.200000,81.0,-25.5,264.5,1.209,-756.0,810.0,-110.0
2020-01-19 17:55:15.300000,81.062,-39.875,256.5,1.148,-761.0,641.0,-110.0
2020-01-19 17:55:15.400000,87.5,-49.625,247.0,1.001,-761.0,641.0,-116.0
2020-01-19 17:55:15.500000,87.5,-49.625,247.0,1.001,-716.0,556.0,-141.0
2020-01-19 17:55:15.600000,86.812,-54.875,240.312,0.913,-673.0,596.0,-141.0
2020-01-19 17:55:15.700000,84.625,-53.313,238.375,0.909,-673.0,596.0,84.0
2020-01-19 17:55:15.800000,84.625,-53.313,238.375,0.909,-882.0,677.0,313.0
2020-01-19 17:55:15.900000,82.125,-49.813,241.062,1.115,-818.0,599.0,313.0
2020-01-19 17:55:16,77.25,-45.688,247.687,1.061,-818.0,599.0,109.0
2020-01-19 17:55:16.100000,77.25,-45.688,247.687,1.061,-436.0,657.0,129.0
2020-01-19 17:55:16.200000,81.625,-39.188,250.062,0.796,-490.0,748.0,129.0
2020-01-19 17:55:16.300000,81.187,-35.125,250.812,0.903,-490.0,748.0,124.0
2020-01-19 17:55:16.400000,81.187,-35.125,250.812,0.903,-567.0,714.0,40.0
2020-01-19 17:55:16.500000,76.25,-33.063,253.187,0.92,-628.0,607.0,40.0
2020-01-19 17:55:16.600000,72.937,-35.0,257.5,0.874,-628.0,607.0,25.0
2020-01-19 17:55:16.700000,72.937,-35.0,257.5,0.874,-768.0,535.0,-163.0
2020-01-19 17:55:16.800000,83.187,-40.75,258.5,0.936,-697.0,584.0,31.0
2020-01-19 17:55:16.900000,84.312,-45.438,259.125,0.923,-794.0,431.0,31.0
2020-01-19 17:55:17,81.125,-49.563,262.5,0.903,-794.0,431.0,56.0
2020-01-19 17:55:17.100000,81.125,-49.563,262.5,0.903,-789.0,491.0,422.0
2020-01-19 17:55:17.200000,75.437,-46.563,271.75,0.93,-911.0,622.0,422.0
2020-01-19 17:55:17.300000,81.562,-40.688,288.0,1.181,-911.0,622.0,386.0
2020-01-19 17:55:17.400000,81.562,-40.688,288.0,1.181,-738.0,561.0,32.0
2020-01-19 17:55:17.500000,87.687,-40.875,306.812,1.004,-399.0,1027.0,32.0
2020-01-19 17:55:17.600000,77.125,-38.0,345.312,1.102,-399.0,1027.0,-1642.0
2020-01-19 17:55:17.700000,77.125,-38.0,345.312,1.102,-768.0,1204.0,-2519.0
2020-01-19 17:55:17.800000,63.875,-33.0,26.625,2.176,-2757.0,1706.0,-2519.0
2020-01-19 17:55:17.900000,94.812,-29.313,15.5,4.105,-2757.0,1706.0,175.0
2020-01-19 17:55:18,94.812,-29.313,15.5,4.105,-1887.0,164.0,404.0
2020-01-19 17:55:18.100000,123.062,18.5,297.187,1.902,-103.0,272.0,404.0
2020-01-19 17:55:18.200000,88.187,34.75,239.375,0.497,-103.0,272.0,-45.0
2020-01-19 17:55:18.300000,88.187,34.75,239.375,0.497,-302.0,878.0,44.0
2020-01-19 17:55:18.400000,91.0,17.687,223.75,0.929,-1388.0,803.0,44.0
2020-01-19 17:55:18.500000,85.062,-28.438,220.562,1.604,-1388.0,803.0,88.0
2020-01-19 17:55:18.600000,85.062,-28.438,220.562,1.604,-1196.0,388.0,102.0
2020-01-19 17:55:18.700000,72.75,-67.25,249.625,1.26,-906.0,334.0,102.0
2020-01-19 17:55:18.800000,6.75,-72.375,328.937,0.97,-906.0,334.0,159.0
2020-01-19 17:55:18.900000,6.75,-72.375,328.937,0.97,-899.0,-4.0,202.0
2020-01-19 17:55:19,-35.313,-67.188,3.312,0.912,-1030.0,67.0,202.0
2020-01-19 17:55:19.100000,-37.5,-69.938,1.687,1.051,-1030.0,67.0,103.0
2020-01-19 17:55:19.200000,-37.5,-69.938,1.687,1.051,-1228.0,-115.0,110.0
2020-01-19 17:55:19.300000,-14.438,-79.188,319.25,1.237,-929.0,330.0,110.0
2020-01-19 17:55:19.400000,42.437,-66.5,254.5,0.991,-929.0,330.0,617.0
2020-01-19 17:55:19.500000,42.437,-66.5,254.5,0.991,-583.0,194.0,376.0
2020-01-19 17:55:19.600000,50.437,-51.688,240.625,0.87,-665.0,434.0,376.0
2020-01-19 17:55:19.700000,50.812,-47.438,242.125,0.878,-665.0,434.0,317.0
2020-01-19 17:55:19.800000,50.812,-47.438,242.125,0.878,-644.0,835.0,366.0
2020-01-19 17:55:19.900000,62.625,-45.0,241.625,1.101,-675.0,732.0,366.0
2020-01-19 17:55:20,69.625,-44.5,245.5,1.06,-675.0,732.0,80.0
2020-01-19 17:55:20.100000,69.625,-44.5,245.5,1.06,-516.0,443.0,-58.0
2020-01-19 17:55:20.200000,74.25,-45.375,247.5,0.684,-1039.0,393.0,-58.0
2020-01-19 17:55:20.300000,68.062,-43.5,256.187,1.112,-1039.0,393.0,439.0
2020-01-19 17:55:20.400000,68.062,-43.5,256.187,1.112,-1055.0,263.0,116.0
2020-01-19 17:55:20.500000,78.312,-43.875,276.812,1.172,-481.0,874.0,116.0
2020-01-19 17:55:20.600000,76.125,-45.125,320.125,1.004,-481.0,874.0,-725.0
2020-01-19 17:55:20.700000,76.125,-45.125,320.125,1.004,-919.0,1317.0,-2420.0
2020-01-19 17:55:20.800000,62.687,-38.188,13.75,1.762,-2010.0,881.0,-2420.0
2020-01-19 17:55:20.900000,81.25,-31.625,38.375,3.266,-2010.0,881.0,-334.0
2020-01-19 17:55:21,81.25,-31.625,38.375,3.266,-3126.0,113.0,860.0
2020-01-19 17:55:21.100000,108.187,-16.0,318.0,3.145,-913.0,155.0,860.0
2020-01-19 17:55:21.200000,82.125,24.375,243.312,1.263,-913.0,155.0,20.0
2020-01-19 17:55:21.300000,82.125,24.375,243.312,1.263,-567.0,776.0,-67.0
2020-01-19 17:55:21.400000,90.562,10.375,222.625,0.961,-1114.0,955.0,-67.0
2020-01-19 17:55:21.500000,84.0,-22.063,236.125,1.468,-1114.0,955.0,-133.0
2020-01-19 17:55:21.600000,84.0,-22.063,236.125,1.468,-1163.0,307.0,386.0
2020-01-19 17:55:21.700000,45.875,-59.25,282.0,1.21,-1041.0,-159.0,386.0
2020-01-19 17:55:21.800000,-9.563,-62.188,343.437,1.121,-1041.0,-159.0,483.0
2020-01-19 17:55:21.900000,-9.563,-62.188,343.437,1.121,-848.0,-5.0,378.0
2020-01-19 17:55:22,-29.0,-58.875,10.687,0.975,-786.0,278.0,378.0
2020-01-19 17:55:22.100000,-9.688,-62.25,9.812,0.915,-786.0,278.0,176.0
2020-01-19 17:55:22.200000,-9.688,-62.25,9.812,0.915,-1023.0,-117.0,135.0
2020-01-19 17:55:22.300000,-13.688,-72.125,354.375,1.044,-1118.0,104.0,135.0
2020-01-19 17:55:22.400000,23.5,-73.813,295.062,1.13,-1118.0,104.0,158.0
2020-01-19 17:55:22.500000,23.5,-73.813,295.062,1.13,-1006.0,431.0,174.0
2020-01-19 17:55:22.600000,56.062,-56.0,263.75,1.105,-769.0,529.0,174.0
2020-01-19 17:55:22.700000,64.75,-51.25,250.437,0.949,-769.0,529.0,83.0
2020-01-19 17:55:22.800000,64.75,-51.25,250.437,0.949,-725.0,502.0,-2.0
2020-01-19 17:55:22.900000,73.437,-53.0,242.375,0.885,-720.0,574.0,-2.0
2020-01-19 17:55:23,72.562,-57.0,248.187,0.92,-720.0,574.0,120.0
2020-01-19 17:55:23.100000,72.562,-57.0,248.187,0.92,-896.0,522.0,371.0
2020-01-19 17:55:23.200000,71.25,-58.813,258.0,1.043,-931.0,519.0,371.0
2020-01-19 17:55:23.300000,65.0,-58.063,269.0,1.128,-931.0,519.0,318.0
2020-01-19 17:55:23.400000,65.0,-58.063,269.0,1.128,-660.0,475.0,333.0
2020-01-19 17:55:23.500000,65.25,-55.688,274.0,0.873,-644.0,519.0,333.0
2020-01-19 17:55:23.600000,58.75,-54.5,273.812,0.891,-644.0,519.0,253.0
2020-01-19 17:55:23.700000,58.75,-54.5,273.812,0.891,-934.0,488.0,185.0
2020-01-19 17:55:23.800000,60.875,-56.5,273.187,1.083,-845.0,406.0,185.0
2020-01-19 17:55:23.900000,64.25,-58.063,271.25,0.955,-845.0,406.0,128.0
2020-01-19 17:55:24,64.25,-58.063,271.25,0.955,-952.0,331.0,87.0
2020-01-19 17:55:24.100000,65.75,-57.625,268.062,1.015,-889.0,238.0,87.0
2020-01-19 17:55:24.200000,57.562,-58.25,261.5,0.924,-889.0,238.0,379.0
2020-01-19 17:55:24.300000,57.562,-58.25,261.5,0.924,-914.0,205.0,436.0
2020-01-19 17:55:24.400000,51.937,-55.813,261.562,1.01,-659.0,268.0,436.0
2020-01-19 17:55:24.500000,47.0,-55.125,258.125,0.834,-659.0,268.0,451.0
2020-01-19 17:55:24.600000,47.0,-55.125,258.125,0.834,-976.0,255.0,354.0
2020-01-19 17:55:24.700000,47.187,-62.938,267.437,1.104,-1133.0,48.0,354.0
2020-01-19 17:55:24.800000,43.312,-70.75,281.25,1.187,-1133.0,48.0,87.0
2020-01-19 17:55:24.900000,43.312,-70.75,281.25,1.187,-858.0,287.0,106.0
2020-01-19 17:55:25,49.062,-68.875,294.25,0.908,-1032.0,231.0,106.0
2020-01-19 17:55:25.100000,41.562,-68.0,307.5,1.062,-1032.0,231.0,225.0
2020-01-19 17:55:25.200000,41.562,-68.0,307.5,1.062,-942.0,101.0,185.0
2020-01-19 17:55:25.300000,45.25,-64.125,295.187,0.973,-792.0,377.0,185.0
2020-01-19 17:55:25.400000,53.875,-56.563,289.5,0.896,-792.0,377.0,232.0
2020-01-19 17:55:25.500000,53.875,-56.563,289.5,0.896,-967.0,413.0,320.0
2020-01-19 17:55:25.600000,56.812,-57.688,295.125,1.076,-763.0,202.0,320.0
2020-01-19 17:55:25.700000,56.5,-61.688,301.812,0.851,-763.0,202.0,244.0
2020-01-19 17:55:25.800000,56.5,-61.688,301.812,0.851,-1087.0,165.0,210.0
2020-01-19 17:55:25.900000,57.125,-67.125,306.75,1.126,-803.0,244.0,210.0
2020-01-19 17:55:26,51.187,-68.688,312.25,0.865,-803.0,244.0,302.0
2020-01-19 17:55:26.100000,51.187,-68.688,312.25,0.865,-1057.0,338.0,41.0
2020-01-19 17:55:26.200000,45.25,-75.5,313.875,1.15,-939.0,247.0,41.0
2020-01-19 17:55:26.300000,49.312,-77.75,296.437,0.971,-939.0,247.0,-128.0
2020-01-19 17:55:26.400000,49.312,-77.75,296.437,0.971,-1056.0,252.0,-143.0
2020-01-19 17:55:26.500000,36.875,-77.5,283.312,1.093,-1160.0,105.0,-143.0
2020-01-19 17:55:26.600000,14.375,-74.125,275.562,1.173,-1160.0,105.0,85.0
2020-01-19 17:55:26.700000,14.375,-74.125,275.562,1.173,-915.0,101.0,134.0
2020-01-19 17:55:26.800000,21.375,-67.25,255.187,0.924,-929.0,373.0,134.0
2020-01-19 17:55:26.900000,40.562,-59.813,244.312,1.01,-929.0,373.0,237.0
2020-01-19 17:55:27,40.562,-59.813,244.312,1.01,-847.0,319.0,336.0
2020-01-19 17:55:27.100000,50.562,-54.938,231.75,0.935,-807.0,371.0,336.0
2020-01-19 17:55:27.200000,56.312,-53.25,220.812,0.949,-807.0,371.0,408.0
2020-01-19 17:55:27.300000,56.312,-53.25,220.812,0.949,-892.0,339.0,443.0
2020-01-19 17:55:27.400000,55.0,-56.688,211.812,1.037,-851.0,440.0,443.0
2020-01-19 17:55:27.500000,54.312,-62.875,209.312,1.055,-851.0,440.0,286.0
2020-01-19 17:55:27.600000,54.312,-62.875,209.312,1.055,-627.0,837.0,483.0
2020-01-19 17:55:27.700000,54.312,-65.688,212.937,1.084,-1068.0,659.0,483.0
2020-01-19 17:55:27.800000,58.5,-56.313,216.937,1.344,-1068.0,659.0,121.0
2020-01-19 17:55:27.900000,58.5,-56.313,216.937,1.344,-341.0,697.0,203.0
2020-01-19 17:55:28,61.687,-34.813,211.687,0.785,-589.0,522.0,203.0
2020-01-19 17:55:28.100000,65.187,-13.813,207.187,0.812,-589.0,522.0,365.0
2020-01-19 17:55:28.200000,65.187,-13.813,207.187,0.812,-497.0,408.0,316.0
2020-01-19 17:55:28.300000,52.562,-13.625,199.5,0.739,-743.0,599.0,316.0
2020-01-19 17:55:28.400000,52.687,-24.875,197.562,1.005,-743.0,599.0,96.0
2020-01-19 17:55:28.500000,52.687,-24.875,197.562,1.005,-857.0,207.0,585.0
2020-01-19 17:55:28.600000,45.812,-49.938,207.437,0.886,-1483.0,-507.0,585.0
2020-01-19 17:55:28.700000,0.5,-79.375,245.25,1.672,-1483.0,-507.0,191.0
2020-01-19 17:55:28.800000,0.5,-79.375,245.25,1.672,-827.0,471.0,304.0
2020-01-19 17:55:28.900000,-71.563,-79.438,333.812,0.97,-1130.0,27.0,304.0
2020-01-19 17:55:29,-55.063,-80.313,328.5,1.17,-1130.0,27.0,125.0
2020-01-19 17:55:29.100000,-55.063,-80.313,328.5,1.17,-1026.0,69.0,92.0
2020-01-19 17:55:29.200000,8.312,-79.75,272.812,1.035,-1121.0,79.0,92.0
2020-01-19 17:55:29.300000,47.375,-71.125,229.125,1.127,-1121.0,79.0,148.0
2020-01-19 17:55:29.400000,47.375,-71.125,229.125,1.127,-812.0,281.0,233.0
2020-01-19 17:55:29.500000,56.312,-57.5,207.5,0.871,-798.0,366.0,233.0
2020-01-19 17:55:29.600000,52.312,-47.438,206.562,0.908,-798.0,366.0,341.0
2020-01-19 17:55:29.700000,52.312,-47.438,206.562,0.908,-930.0,249.0,160.0
2020-01-19 17:55:29.800000,48.187,-51.063,212.5,1.021,-1092.0,127.0,160.0
2020-01-19 17:55:29.900000,49.187,-58.938,226.125,1.11,-1092.0,127.0,231.0
2020-01-19 17:55:30,49.187,-58.938,226.125,1.11,-964.0,248.0,277.0
2020-01-19 17:55:30.100000,40.5,-64.75,253.437,1.021,-843.0,137.0,277.0
2020-01-19 17:55:30.200000,16.062,-68.75,298.125,0.897,-843.0,137.0,299.0
2020-01-19 17:55:30.300000,16.062,-68.75,298.125,0.897,-866.0,125.0,369.0
2020-01-19 17:55:30.400000,13.5,-66.813,321.875,0.924,-1068.0,-77.0,369.0
2020-01-19 17:55:30.500000,22.0,-67.375,331.25,1.132,-1068.0,-77.0,56.0
2020-01-19 17:55:30.600000,22.0,-67.375,331.25,1.132,-930.0,278.0,53.0
2020-01-19 17:55:30.700000,49.125,-61.688,327.562,0.972,-1074.0,385.0,53.0
2020-01-19 17:55:30.800000,51.0,-64.375,347.312,1.142,-1074.0,385.0,149.0
2020-01-19 17:55:30.900000,51.0,-64.375,347.312,1.142,-770.0,286.0,176.0
2020-01-19 17:55:31,34.0,-75.0,8.312,0.834,-1101.0,190.0,176.0
2020-01-19 17:55:31.100000,27.437,-75.875,32.312,1.131,-1101.0,190.0,278.0
2020-01-19 17:55:31.200000,27.437,-75.875,32.312,1.131,-1184.0,-33.0,218.0
2020-01-19 17:55:31.300000,37.937,-74.688,22.0,1.216,-780.0,380.0,218.0
2020-01-19 17:55:31.400000,55.437,-68.375,23.125,0.894,-780.0,380.0,342.0
2020-01-19 17:55:31.500000,55.437,-68.375,23.125,0.894,-760.0,334.0,185.0
2020-01-19 17:55:31.600000,69.562,-59.063,7.125,0.897,-674.0,588.0,185.0
2020-01-19 17:55:31.700000,72.812,-55.875,354.125,0.913,-674.0,588.0,14.0
2020-01-19 17:55:31.800000,72.812,-55.875,354.125,0.913,-1060.0,441.0,-362.0
2020-01-19 17:55:31.900000,76.812,-59.875,339.5,1.148,-778.0,170.0,-362.0
2020-01-19 17:55:32,71.062,-70.5,319.062,0.874,-778.0,170.0,-450.0
2020-01-19 17:55:32.100000,71.062,-70.5,319.062,0.874,-1036.0,64.0,-390.0
2020-01-19 17:55:32.200000,6.0,-83.813,266.125,1.131,-1119.0,-173.0,-390.0
2020-01-19 17:55:32.300000,-178.875,-86.0,119.062,1.197,-1119.0,-173.0,-145.0
2020-01-19 17:55:32.400000,-178.875,-86.0,119.062,1.197,-1029.0,65.0,0.0
2020-01-19 17:55:32.500000,5.937,-83.438,248.25,1.041,-838.0,294.0,0.0
2020-01-19 17:55:32.600000,72.562,-65.563,258.125,0.888,-838.0,294.0,147.0
2020-01-19 17:55:32.700000,72.562,-65.563,258.125,0.888,-949.0,286.0,250.0
2020-01-19 17:55:32.800000,63.5,-57.188,260.375,1.002,-859.0,306.0,250.0
2020-01-19 17:55:32.900000,50.875,-57.375,266.5,0.945,-859.0,306.0,331.0
2020-01-19 17:55:33,50.875,-57.375,266.5,0.945,-921.0,414.0,279.0
2020-01-19 17:55:33.100000,48.812,-61.938,269.687,1.062,-964.0,162.0,279.0
2020-01-19 17:55:33.200000,27.0,-73.125,289.562,1.016,-964.0,162.0,267.0
2020-01-19 17:55:33.300000,27.0,-73.125,289.562,1.016,-866.0,133.0,176.0
2020-01-19 17:55:33.400000,19.5,-77.563,292.187,0.915,-952.0,313.0,176.0
2020-01-19 17:55:33.500000,26.625,-79.813,280.562,1.017,-952.0,313.0,75.0
2020-01-19 17:55:33.600000,26.625,-79.813,280.562,1.017,-953.0,247.0,96.0
2020-01-19 17:55:33.700000,33.75,-79.313,262.687,0.987,-1151.0,210.0,96.0
2020-01-19 17:55:33.800000,44.562,-73.813,243.437,1.173,-1151.0,210.0,196.0
2020-01-19 17:55:33.900000,44.562,-73.813,243.437,1.173,-950.0,161.0,152.0
2020-01-19 17:55:34,53.25,-66.875,228.875,0.983,-817.0,322.0,152.0
2020-01-19 17:55:34.100000,62.062,-59.063,217.625,0.891,-817.0,322.0,183.0
2020-01-19 17:55:34.200000,62.062,-59.063,217.625,0.891,-866.0,389.0,156.0
2020-01-19 17:55:34.300000,59.125,-55.5,218.312,0.966,-902.0,356.0,156.0
2020-01-19 17:55:34.400000,50.125,-62.25,226.5,0.982,-902.0,356.0,267.0
2020-01-19 17:55:34.500000,50.125,-62.25,226.5,0.982,-971.0,151.0,304.0
2020-01-19 17:55:34.600000,43.5,-71.875,238.437,1.018,-931.0,100.0,304.0
2020-01-19 17:55:34.700000,23.25,-78.438,267.75,0.984,-931.0,100.0,217.0
2020-01-19 17:55:34.800000,23.25,-78.438,267.75,0.984,-970.0,257.0,226.0
2020-01-19 17:55:34.900000,-11.813,-78.938,309.125,1.026,-1028.0,148.0,226.0
2020-01-19 17:55:35,-30.75,-80.438,323.812,1.062,-1028.0,148.0,99.0
2020-01-19 17:55:35.100000,-30.75,-80.438,323.812,1.062,-1129.0,170.0,96.0
2020-01-19 17:55:35.200000,24.5,-83.063,264.75,1.146,-867.0,138.0,96.0
2020-01-19 17:55:35.300000,57.437,-73.125,223.5,0.883,-867.0,138.0,51.0
2020-01-19 17:55:35.400000,57.437,-73.125,223.5,0.883,-1046.0,278.0,153.0
2020-01-19 17:55:35.500000,57.312,-62.125,211.937,1.083,-937.0,195.0,153.0
2020-01-19 17:55:35.600000,57.375,-56.313,217.437,0.969,-937.0,195.0,252.0
2020-01-19 17:55:35.700000,57.375,-56.313,217.437,0.969,-910.0,218.0,255.0
2020-01-19 17:55:35.800000,58.25,-59.625,222.562,0.969,-833.0,302.0,255.0
2020-01-19 17:55:35.900000,57.562,-67.125,234.812,0.922,-833.0,302.0,286.0
2020-01-19 17:55:36,57.562,-67.125,234.812,0.922,-1192.0,199.0,141.0
2020-01-19 17:55:36.100000,23.687,-81.5,275.937,1.241,-978.0,-17.0,141.0
2020-01-19 17:55:36.200000,-44.938,-79.438,353.0,0.988,-978.0,-17.0,150.0
2020-01-19 17:55:36.300000,-44.938,-79.438,353.0,0.988,-1060.0,-74.0,95.0
2020-01-19 17:55:36.400000,-9.0,-78.5,322.562,1.073,-984.0,167.0,95.0
2020-01-19 17:55:36.500000,45.187,-71.188,266.687,1.002,-984.0,167.0,266.0
2020-01-19 17:55:36.600000,45.187,-71.188,266.687,1.002,-892.0,275.0,343.0
2020-01-19 17:55:36.700000,55.875,-59.313,250.937,0.97,-880.0,199.0,343.0
2020-01-19 17:55:36.800000,53.375,-55.813,245.812,0.965,-880.0,199.0,253.0
2020-01-19 17:55:36.900000,53.375,-55.813,245.812,0.965,-786.0,258.0,286.0
2020-01-19 17:55:37,54.375,-55.75,247.937,0.865,-1022.0,230.0,286.0
2020-01-19 17:55:37.100000,48.125,-63.688,253.812,1.085,-1022.0,230.0,205.0
2020-01-19 17:55:37.200000,48.125,-63.688,253.812,1.085,-897.0,222.0,191.0
2020-01-19 17:55:37.300000,44.625,-68.813,257.562,0.946,-952.0,280.0,131.0
2020-01-19 17:55:37.400000,47.125,-70.125,257.0,1.01,-975.0,233.0,131.0
2020-01-19 17:55:37.500000,50.437,-71.25,250.187,1.01,-975.0,233.0,109.0
2020-01-19 17:55:37.600000,50.437,-71.25,250.187,1.01,-951.0,257.0,132.0
2020-01-19 17:55:37.700000,56.062,-70.125,241.687,0.991,-936.0,256.0,132.0
2020-01-19 17:55:37.800000,59.625,-70.688,232.812,0.979,-936.0,256.0,132.0
2020-01-19 17:55:37.900000,59.625,-70.688,232.812,0.979,-937.0,245.0,148.0
2020-01-19 17:55:38,61.062,-71.5,228.437,0.977,-966.0,236.0,148.0
2020-01-19 17:55:38.100000,60.937,-73.25,227.312,1.005,-966.0,236.0,126.0
2020-01-19 17:55:38.200000,60.937,-73.25,227.312,1.005,-950.0,210.0,137.0
2020-01-19 17:55:38.300000,58.625,-74.875,229.0,0.981,-940.0,226.0,137.0
2020-01-19 17:55:38.400000,56.687,-75.75,231.562,0.976,-940.0,226.0,157.0
2020-01-19 17:55:38.500000,56.687,-75.75,231.562,0.976,-999.0,280.0,233.0
2020-01-19 17:55:38.600000,56.937,-75.938,231.687,1.049,-924.0,462.0,233.0
2020-01-19 17:55:38.700000,65.125,-72.375,221.062,1.059,-924.0,462.0,206.0
2020-01-19 17:55:38.800000,65.125,-72.375,221.062,1.059,-807.0,635.0,240.0
2020-01-19 17:55:38.900000,68.937,-60.688,202.687,1.047,-639.0,753.0,240.0
2020-01-19 17:55:39,69.187,-44.563,181.625,1.016,-639.0,753.0,169.0
2020-01-19 17:55:39.100000,69.187,-44.563,181.625,1.016,-305.0,857.0,252.0
2020-01-19 17:55:39.200000,74.25,-27.938,164.75,0.925,-260.0,743.0,252.0
2020-01-19 17:55:39.300000,71.625,-15.813,158.125,0.826,-260.0,743.0,482.0
2020-01-19 17:55:39.400000,71.625,-15.813,158.125,0.826,-254.0,702.0,294.0
2020-01-19 17:55:39.500000,71.437,-9.188,157.625,0.888,43.0,776.0,294.0
2020-01-19 17:55:39.600000,68.5,-9.813,170.937,0.83,43.0,776.0,579.0
2020-01-19 17:55:39.700000,68.5,-9.813,170.937,0.83,-291.0,659.0,742.0
2020-01-19 17:55:39.800000,49.937,-17.875,174.375,0.924,-226.0,532.0,742.0
2020-01-19 17:55:39.900000,41.687,-21.25,171.5,0.94,-226.0,532.0,503.0
2020-01-19 17:55:40,41.687,-21.25,171.5,0.94,-246.0,791.0,678.0
2020-01-19 17:55:40.100000,45.5,-16.313,164.937,0.969,170.0,924.0,678.0
2020-01-19 17:55:40.200000,55.125,-0.563,159.812,1.158,170.0,924.0,675.0
2020-01-19 17:55:40.300000,55.125,-0.563,159.812,1.158,369.0,539.0,330.0
2020-01-19 17:55:40.400000,65.25,23.437,167.25,0.939,563.0,408.0,330.0
2020-01-19 17:55:40.500000,58.25,35.437,170.062,0.769,563.0,408.0,58.0
2020-01-19 17:55:40.600000,58.25,35.437,170.062,0.769,250.0,468.0,-245.0
2020-01-19 17:55:40.700000,58.187,29.5,190.5,0.533,103.0,1382.0,-245.0
2020-01-19 17:55:40.800000,81.937,3.437,200.875,1.407,103.0,1382.0,48.0
2020-01-19 17:55:40.900000,81.937,3.437,200.875,1.407,-82.0,1002.0,-55.0
2020-01-19 17:55:41,91.25,-3.938,196.312,1.006,125.0,835.0,-55.0
2020-01-19 17:55:41.100000,91.187,1.125,191.125,0.846,125.0,835.0,52.0
2020-01-19 17:55:41.200000,91.187,1.125,191.125,0.846,156.0,881.0,4.0
2020-01-19 17:55:41.300000,87.312,7.812,186.187,0.896,221.0,912.0,4.0
2020-01-19 17:55:41.400000,88.5,9.062,183.562,0.938,221.0,912.0,209.0
2020-01-19 17:55:41.500000,88.5,9.062,183.562,0.938,152.0,753.0,-357.0
2020-01-19 17:55:41.600000,87.75,10.812,180.25,0.796,74.0,773.0,-357.0
2020-01-19 17:55:41.700000,89.187,5.375,187.5,0.854,74.0,773.0,-420.0
2020-01-19 17:55:41.800000,89.187,5.375,187.5,0.854,-476.0,1145.0,-259.0
2020-01-19 17:55:41.900000,99.25,-13.688,188.562,1.309,-418.0,762.0,-259.0
2020-01-19 17:55:42,112.812,-26.5,173.0,0.906,-418.0,762.0,-358.0
2020-01-19 17:55:42.100000,112.812,-26.5,173.0,0.906,-327.0,840.0,-305.0
2020-01-19 17:55:42.200000,113.125,-22.875,176.437,0.969,-206.0,844.0,-305.0
2020-01-19 17:55:42.300000,110.0,-18.813,180.312,0.92,-206.0,844.0,-232.0
2020-01-19 17:55:42.400000,110.0,-18.813,180.312,0.92,-139.0,820.0,-439.0
2020-01-19 17:55:42.500000,105.937,-12.688,185.187,0.863,-34.0,902.0,-439.0
2020-01-19 17:55:42.600000,106.75,-9.5,190.062,1.003,-34.0,902.0,-315.0
2020-01-19 17:55:42.700000,106.75,-9.5,190.062,1.003,-28.0,799.0,-430.0
2020-01-19 17:55:42.800000,111.687,-4.063,190.437,0.859,74.0,789.0,-430.0
2020-01-19 17:55:42.900000,116.375,1.812,192.562,0.901,74.0,789.0,-469.0
2020-01-19 17:55:43,116.375,1.812,192.562,0.901,150.0,851.0,-357.0
2020-01-19 17:55:43.100000,115.062,3.437,197.312,0.983,209.0,790.0,-357.0
2020-01-19 17:55:43.200000,111.875,7.312,201.312,0.891,209.0,790.0,-302.0
2020-01-19 17:55:43.300000,111.875,7.312,201.312,0.891,258.0,900.0,-104.0
2020-01-19 17:55:43.400000,107.937,9.25,203.25,0.983,239.0,879.0,-104.0
2020-01-19 17:55:43.500000,100.437,11.25,203.25,0.916,239.0,879.0,-228.0
2020-01-19 17:55:43.600000,100.437,11.25,203.25,0.916,327.0,862.0,-215.0
2020-01-19 17:55:43.700000,99.312,13.562,206.5,0.949,317.0,840.0,-215.0
2020-01-19 17:55:43.800000,100.937,15.25,210.25,0.923,317.0,840.0,-256.0
2020-01-19 17:55:43.900000,100.937,15.25,210.25,0.923,347.0,834.0,-260.0
2020-01-19 17:55:44,101.187,16.125,211.75,0.938,301.0,822.0,-260.0
2020-01-19 17:55:44.100000,102.625,16.75,212.437,0.913,301.0,822.0,-321.0
2020-01-19 17:55:44.200000,102.625,16.75,212.437,0.913,339.0,841.0,-338.0
2020-01-19 17:55:44.300000,104.812,16.25,212.187,0.961,320.0,807.0,-338.0
2020-01-19 17:55:44.400000,107.062,16.5,211.812,0.931,320.0,807.0,-318.0
2020-01-19 17:55:44.500000,107.062,16.5,211.812,0.931,313.0,772.0,-260.0
2020-01-19 17:55:44.600000,106.187,16.375,208.812,0.891,191.0,877.0,-260.0
2020-01-19 17:55:44.700000,107.625,13.375,205.5,0.934,191.0,877.0,-396.0
2020-01-19 17:55:44.800000,107.625,13.375,205.5,0.934,180.0,893.0,-330.0
2020-01-19 17:55:44.900000,108.687,8.562,203.937,0.993,149.0,842.0,-330.0
2020-01-19 17:55:45,108.625,5.25,205.0,0.916,149.0,842.0,-357.0
2020-01-19 17:55:45.100000,108.625,5.25,205.0,0.916,152.0,868.0,-360.0
2020-01-19 17:55:45.200000,107.562,5.375,204.5,0.95,123.0,840.0,-360.0
2020-01-19 17:55:45.300000,110.25,4.812,203.687,0.922,123.0,840.0,-389.0
2020-01-19 17:55:45.400000,110.25,4.812,203.687,0.922,174.0,841.0,-366.0
2020-01-19 17:55:45.500000,111.562,5.75,202.687,0.942,147.0,854.0,-366.0
2020-01-19 17:55:45.600000,109.562,5.875,204.437,0.94,147.0,854.0,-380.0
2020-01-19 17:55:45.700000,109.562,5.875,204.437,0.94,164.0,839.0,-363.0
2020-01-19 17:55:45.800000,110.437,6.125,204.687,0.935,137.0,838.0,-363.0
2020-01-19 17:55:45.900000,110.562,5.937,204.5,0.923,137.0,838.0,-403.0
2020-01-19 17:55:46,110.562,5.937,204.5,0.923,145.0,844.0,-377.0
2020-01-19 17:55:46.100000,111.187,5.187,204.625,0.946,163.0,864.0,-377.0
2020-01-19 17:55:46.200000,111.25,5.75,205.0,0.956,163.0,864.0,-322.0
2020-01-19 17:55:46.300000,111.25,5.75,205.0,0.956,160.0,892.0,-284.0
2020-01-19 17:55:46.400000,109.625,6.812,204.437,0.961,196.0,873.0,-284.0
2020-01-19 17:55:46.500000,106.437,8.437,204.687,0.938,196.0,873.0,-219.0
2020-01-19 17:55:46.600000,106.437,8.437,204.687,0.938,237.0,844.0,-199.0
2020-01-19 17:55:46.700000,103.0,10.75,205.75,0.903,254.0,875.0,-199.0
2020-01-19 17:55:46.800000,100.5,12.312,205.812,0.932,254.0,875.0,-172.0
2020-01-19 17:55:46.900000,100.5,12.312,205.812,0.932,258.0,879.0,-165.0
2020-01-19 17:55:47,99.625,13.25,205.562,0.932,251.0,910.0,-165.0
2020-01-19 17:55:47.100000,99.125,13.375,206.0,0.958,251.0,910.0,-154.0
2020-01-19 17:55:47.200000,99.125,13.375,206.0,0.958,270.0,888.0,-131.0
2020-01-19 17:55:47.300000,99.0,13.937,206.625,0.94,311.0,833.0,-131.0
2020-01-19 17:55:47.400000,97.25,15.687,208.5,0.898,311.0,833.0,-138.0
2020-01-19 17:55:47.500000,97.25,15.687,208.5,0.898,334.0,870.0,-109.0
2020-01-19 17:55:47.600000,94.375,17.5,208.375,0.942,315.0,854.0,-109.0
2020-01-19 17:55:47.700000,93.625,17.062,208.5,0.916,315.0,854.0,-95.0
2020-01-19 17:55:47.800000,93.625,17.062,208.5,0.916,329.0,877.0,-89.0
2020-01-19 17:55:47.900000,94.75,17.437,208.75,0.941,317.0,853.0,-89.0
2020-01-19 17:55:48,94.875,17.375,208.062,0.914,317.0,853.0,-95.0
2020-01-19 17:55:48.100000,94.875,17.375,208.062,0.914,292.0,876.0,-122.0
2020-01-19 17:55:48.200000,94.812,17.437,207.125,0.928,282.0,895.0,-122.0
2020-01-19 17:55:48.300000,96.062,15.937,209.0,0.946,282.0,895.0,-141.0
2020-01-19 17:55:48.400000,96.062,15.937,209.0,0.946,300.0,871.0,-42.0
2020-01-19 17:55:48.500000,95.625,15.5,210.75,0.931,292.0,881.0,-42.0
2020-01-19 17:55:48.600000,93.937,15.625,210.937,0.929,292.0,881.0,-74.0
2020-01-19 17:55:48.700000,93.937,15.625,210.937,0.929,289.0,886.0,-86.0
2020-01-19 17:55:48.800000,92.75,15.875,210.187,0.934,312.0,884.0,-86.0
2020-01-19 17:55:48.900000,92.5,16.312,210.687,0.941,312.0,884.0,-73.0
2020-01-19 17:55:49,92.5,16.312,210.687,0.941,307.0,892.0,-61.0
2020-01-19 17:55:49.100000,92.625,16.687,208.875,0.946,303.0,865.0,-61.0
2020-01-19 17:55:49.200000,92.812,17.187,207.125,0.918,303.0,865.0,-83.0
2020-01-19 17:55:49.300000,92.812,17.187,207.125,0.918,332.0,868.0,-30.0
2020-01-19 17:55:49.400000,93.125,17.812,205.812,0.933,297.0,874.0,-30.0
2020-01-19 17:55:49.500000,92.75,18.437,203.625,0.923,297.0,874.0,-65.0
2020-01-19 17:55:49.600000,92.75,18.437,203.625,0.923,318.0,892.0,-83.0
2020-01-19 17:55:49.700000,93.062,17.875,202.562,0.949,323.0,876.0,-83.0
2020-01-19 17:55:49.800000,93.312,17.812,203.937,0.937,323.0,876.0,-110.0
2020-01-19 17:55:49.900000,93.312,17.812,203.937,0.937,308.0,922.0,-132.0
2020-01-19 17:55:50,95.125,16.937,205.5,0.978,301.0,946.0,-132.0
2020-01-19 17:55:50.100000,95.687,15.937,205.437,1.001,301.0,946.0,-92.0
2020-01-19 17:55:50.200000,95.687,15.937,205.437,1.001,309.0,903.0,-48.0
2020-01-19 17:55:50.300000,94.812,15.687,206.187,0.958,314.0,842.0,-48.0
2020-01-19 17:55:50.400000,93.187,17.5,204.875,0.899,314.0,842.0,-115.0
2020-01-19 17:55:50.500000,93.187,17.5,204.875,0.899,318.0,861.0,-213.0
2020-01-19 17:55:50.600000,94.312,16.812,205.187,0.925,236.0,892.0,-213.0
2020-01-19 17:55:50.700000,99.75,13.375,204.375,0.946,236.0,892.0,-403.0
2020-01-19 17:55:50.800000,99.75,13.375,204.375,0.946,155.0,895.0,-427.0
2020-01-19 17:55:50.900000,106.812,7.812,204.0,0.993,61.0,881.0,-430.0
2020-01-19 17:55:51,113.937,3.562,203.875,0.98,-5.0,851.0,-430.0
2020-01-19 17:55:51.100000,115.5,0.562,200.5,0.953,-5.0,851.0,-420.0
2020-01-19 17:55:51.200000,115.5,0.562,200.5,0.953,-55.0,873.0,-511.0
2020-01-19 17:55:51.300000,116.125,-0.75,197.25,0.97,-13.0,836.0,-511.0
2020-01-19 17:55:51.400000,115.562,-2.813,197.937,0.979,-13.0,836.0,-378.0
2020-01-19 17:55:51.500000,115.562,-2.813,197.937,0.979,-17.0,911.0,-378.0
2020-01-19 17:55:51.600000,114.687,-3.563,198.187,0.986,22.0,865.0,-378.0
2020-01-19 17:55:51.700000,111.437,-1.438,196.312,0.944,22.0,865.0,-359.0
2020-01-19 17:55:51.800000,111.437,-1.438,196.312,0.944,75.0,843.0,-472.0
2020-01-19 17:55:51.900000,111.062,1.0,195.25,0.919,92.0,882.0,-472.0
2020-01-19 17:55:52,111.625,1.937,193.687,1.004,92.0,882.0,-386.0
2020-01-19 17:55:52.100000,111.625,1.937,193.687,1.004,92.0,912.0,-381.0
2020-01-19 17:55:52.200000,115.062,3.625,191.312,0.994,144.0,864.0,-381.0
2020-01-19 17:55:52.300000,112.312,5.75,186.5,0.955,144.0,864.0,-267.0
2020-01-19 17:55:52.400000,112.312,5.75,186.5,0.955,196.0,877.0,-300.0
2020-01-19 17:55:52.500000,106.937,9.312,184.562,0.937,196.0,912.0,-300.0
2020-01-19 17:55:52.600000,107.312,11.125,184.312,0.979,196.0,912.0,-260.0
2020-01-19 17:55:52.700000,107.312,11.125,184.312,0.979,224.0,870.0,-322.0
2020-01-19 17:55:52.800000,108.812,12.625,184.5,0.935,276.0,904.0,-322.0
2020-01-19 17:55:52.900000,105.75,14.25,185.812,0.998,276.0,904.0,-123.0
2020-01-19 17:55:53,105.75,14.25,185.812,0.998,213.0,887.0,-220.0
2020-01-19 17:55:53.100000,103.437,13.0,185.812,0.92,231.0,866.0,-220.0
2020-01-19 17:55:53.200000,100.937,12.5,185.75,0.922,231.0,866.0,-197.0
2020-01-19 17:55:53.300000,100.937,12.5,185.75,0.922,121.0,857.0,-421.0
2020-01-19 17:55:53.400000,99.812,10.375,187.062,0.887,146.0,972.0,-421.0
2020-01-19 17:55:53.500000,109.5,4.375,188.937,1.069,146.0,972.0,-307.0
2020-01-19 17:55:53.600000,109.5,4.375,188.937,1.069,62.0,867.0,-362.0
2020-01-19 17:55:53.700000,111.0,3.0,188.5,0.921,90.0,916.0,-362.0
2020-01-19 17:55:53.800000,110.812,2.0,187.687,0.989,90.0,916.0,-355.0
2020-01-19 17:55:53.900000,110.812,2.0,187.687,0.989,125.0,939.0,-92.0
2020-01-19 17:55:54,108.812,3.062,186.937,1.011,28.0,737.0,-92.0
2020-01-19 17:55:54.100000,102.875,5.375,183.187,0.743,28.0,737.0,-414.0
2020-01-19 17:55:54.200000,102.875,5.375,183.187,0.743,108.0,1044.0,-352.0
2020-01-19 17:55:54.300000,106.375,4.312,179.187,1.128,52.0,886.0,-352.0
2020-01-19 17:55:54.400000,110.187,1.687,180.312,0.954,52.0,886.0,-345.0
2020-01-19 17:55:54.500000,110.187,1.687,180.312,0.954,63.0,876.0,-331.0
2020-01-19 17:55:54.600000,109.5,2.25,180.375,0.943,75.0,876.0,-331.0
2020-01-19 17:55:54.700000,108.812,2.5,179.875,0.939,75.0,876.0,-326.0
2020-01-19 17:55:54.800000,108.812,2.5,179.875,0.939,35.0,910.0,-362.0
2020-01-19 17:55:54.900000,109.25,1.75,180.0,0.967,85.0,894.0,-362.0
2020-01-19 17:55:55,109.625,1.625,181.75,0.968,85.0,894.0,-293.0
2020-01-19 17:55:55.100000,109.625,1.625,181.75,0.968,67.0,849.0,-270.0
2020-01-19 17:55:55.200000,107.75,2.187,181.25,0.9,37.0,883.0,-270.0
2020-01-19 17:55:55.300000,105.25,1.5,177.125,0.924,37.0,883.0,-356.0
2020-01-19 17:55:55.400000,105.25,1.5,177.125,0.924,-6.0,908.0,-411.0
2020-01-19 17:55:55.500000,109.937,-1.125,176.75,0.975,-15.0,878.0,-411.0
2020-01-19 17:55:55.600000,112.562,-3.063,177.437,0.969,-15.0,878.0,-405.0
2020-01-19 17:55:55.700000,112.562,-3.063,177.437,0.969,2.0,929.0,-353.0
2020-01-19 17:55:55.800000,112.5,-3.625,178.25,1.013,64.0,899.0,-353.0
2020-01-19 17:55:55.900000,107.687,-1.25,176.937,0.967,64.0,899.0,-155.0
