starttime,tilt1,tilt2,compass,accelerometer,ax,ay,az
2020-01-19 11:37:57.100000,-25.313,-13.438,194.437,1.027,-253.0,-413.0,911.0
2020-01-19 11:37:57.200000,-25.313,-13.438,194.437,1.034,-265.0,-412.0,902.0
2020-01-19 11:37:57.300000,-25.313,-14.188,194.375,1.027,-270.0,-412.0,902.0
2020-01-19 11:37:57.400000,-25.063,-14.875,194.687,1.027,-270.0,-422.0,896.0
2020-01-19 11:37:57.500000,-25.125,-14.875,194.687,1.022,-254.0,-426.0,892.0
2020-01-19 11:37:57.600000,-25.125,-14.563,195.062,1.017,-243.0,-426.0,892.0
2020-01-19 11:37:57.700000,-25.688,-13.938,195.437,1.017,-243.0,-436.0,883.0
2020-01-19 11:37:57.800000,-26.313,-13.938,195.437,1.011,-230.0,-451.0,888.0
2020-01-19 11:37:57.900000,-26.313,-13.375,195.937,1.021,-229.0,-451.0,888.0
2020-01-19 11:37:58,-26.938,-13.125,196.25,1.021,-229.0,-456.0,879.0
2020-01-19 11:37:58.100000,-27.688,-13.125,196.25,1.016,-231.0,-460.0,877.0
2020-01-19 11:37:58.200000,-27.688,-13.125,196.187,1.017,-235.0,-460.0,877.0
2020-01-19 11:37:58.300000,-27.875,-12.875,195.812,1.017,-235.0,-458.0,889.0
2020-01-19 11:37:58.400000,-27.875,-12.875,195.812,1.026,-232.0,-455.0,877.0
2020-01-19 11:37:58.500000,-27.875,-12.813,196.0,1.013,-228.0,-455.0,877.0
2020-01-19 11:37:58.600000,-28.0,-13.0,196.25,1.013,-228.0,-462.0,891.0
2020-01-19 11:37:58.700000,-27.813,-13.0,196.25,1.03,-234.0,-460.0,876.0
2020-01-19 11:37:58.800000,-27.813,-12.875,196.375,1.016,-231.0,-460.0,876.0
2020-01-19 11:37:58.900000,-28.0,-13.063,196.875,1.016,-231.0,-463.0,877.0
2020-01-19 11:37:59,-28.125,-13.063,196.875,1.018,-232.0,-459.0,875.0
2020-01-19 11:37:59.100000,-28.125,-13.125,197.062,1.015,-235.0,-459.0,875.0
2020-01-19 11:37:59.200000,-28.125,-13.063,197.375,1.015,-235.0,-424.0,861.0
2020-01-19 11:37:59.300000,-28.375,-13.063,197.375,0.986,-227.0,-416.0,829.0
2020-01-19 11:37:59.400000,-28.375,-13.438,197.875,0.96,-251.0,-416.0,829.0
2020-01-19 11:37:59.500000,-28.313,-15.0,197.187,0.96,-251.0,-435.0,822.0
2020-01-19 11:37:59.600000,-28.063,-15.0,197.187,1.0,-369.0,-441.0,440.0
2020-01-19 11:37:59.700000,-28.063,-19.25,195.25,0.781,-472.0,-441.0,440.0
2020-01-19 11:37:59.800000,-27.063,-26.0,192.687,0.781,-472.0,-771.0,465.0
2020-01-19 11:37:59.900000,-27.938,-26.0,192.687,1.319,-965.0,-504.0,176.0
2020-01-19 11:38:00,-27.938,-40.063,197.687,1.044,-898.0,-504.0,176.0
2020-01-19 11:38:00.100000,-45.5,-59.938,210.562,1.044,-898.0,-428.0,172.0
2020-01-19 11:38:00.200000,-75.875,-59.938,210.562,1.122,-1023.0,-237.0,103.0
2020-01-19 11:38:00.300000,-75.875,-71.625,213.125,0.979,-945.0,-237.0,103.0
2020-01-19 11:38:00.400000,-91.0,-79.25,215.812,0.979,-945.0,-127.0,42.0
2020-01-19 11:38:00.500000,-91.375,-79.25,215.812,1.007,-999.0,-102.0,-6.0
2020-01-19 11:38:00.600000,-91.375,-83.688,257.437,1.175,-1171.0,-102.0,-6.0
2020-01-19 11:38:00.700000,-174.938,-79.063,310.375,1.175,-1171.0,-49.0,-438.0
2020-01-19 11:38:00.800000,-171.938,-79.063,310.375,1.034,-936.0,-82.0,-515.0
2020-01-19 11:38:00.900000,-171.938,-70.438,324.062,1.036,-896.0,-82.0,-515.0
2020-01-19 11:38:01,-175.438,-66.5,330.562,1.036,-896.0,-184.0,-389.0
2020-01-19 11:38:01.100000,178.312,-66.5,330.562,0.922,-816.0,-274.0,-179.0
2020-01-19 11:38:01.200000,178.312,-67.75,326.25,0.844,-778.0,-274.0,-179.0
2020-01-19 11:38:01.300000,-177.5,-67.125,324.187,0.844,-778.0,-75.0,-79.0
2020-01-19 11:38:01.400000,-171.0,-67.125,324.187,1.084,-1079.0,14.0,-281.0
2020-01-19 11:38:01.500000,-171.0,-68.75,325.812,1.191,-1158.0,14.0,-281.0
2020-01-19 11:38:01.600000,-166.0,-78.625,322.937,1.191,-1158.0,-265.0,-168.0
2020-01-19 11:38:01.700000,-169.063,-78.625,322.937,1.066,-1019.0,-85.0,211.0
2020-01-19 11:38:01.800000,-169.063,-80.688,304.437,0.643,-602.0,-85.0,211.0
2020-01-19 11:38:01.900000,-163.5,-77.375,299.375,0.643,-602.0,-151.0,-360.0
2020-01-19 11:38:02,-158.0,-77.375,299.375,1.304,-1245.0,-289.0,-220.0
2020-01-19 11:38:02.100000,-158.0,-77.813,261.937,1.265,-1212.0,-289.0,-220.0
2020-01-19 11:38:02.200000,-132.563,-76.813,260.062,1.265,-1212.0,-293.0,110.0
2020-01-19 11:38:02.300000,-126.875,-76.813,260.062,0.819,-757.0,-282.0,252.0
2020-01-19 11:38:02.400000,-126.875,-76.0,259.5,0.949,-871.0,-282.0,252.0
2020-01-19 11:38:02.500000,-130.688,-75.813,227.437,0.949,-871.0,-280.0,154.0
2020-01-19 11:38:02.600000,-101.5,-75.813,227.437,1.214,-1172.0,-249.0,499.0
2020-01-19 11:38:02.700000,-101.5,-68.0,181.875,1.069,-913.0,-249.0,499.0
2020-01-19 11:38:02.800000,-67.125,-68.625,163.125,1.069,-913.0,-281.0,357.0
2020-01-19 11:38:02.900000,-53.75,-68.625,163.125,0.812,-674.0,-370.0,378.0
2020-01-19 11:38:03,-53.75,-66.688,141.937,1.011,-862.0,-370.0,378.0
2020-01-19 11:38:03.100000,-48.5,-58.375,123.25,1.011,-862.0,-426.0,321.0
2020-01-19 11:38:03.200000,-49.875,-58.375,123.25,1.006,-854.0,-195.0,339.0
2020-01-19 11:38:03.300000,-49.875,-56.75,107.437,1.064,-990.0,-195.0,339.0
2020-01-19 11:38:03.400000,-42.313,-62.5,93.375,1.064,-990.0,-93.0,388.0
2020-01-19 11:38:03.500000,-30.938,-62.5,93.375,0.824,-721.0,202.0,345.0
2020-01-19 11:38:03.600000,-30.938,-71.0,74.375,1.018,-937.0,202.0,345.0
2020-01-19 11:38:03.700000,-10.125,-67.188,43.062,1.018,-937.0,231.0,452.0
2020-01-19 11:38:03.800000,16.125,-67.188,43.062,1.157,-1040.0,363.0,722.0
2020-01-19 11:38:03.900000,16.125,-55.188,29.375,1.114,-768.0,363.0,722.0
2020-01-19 11:38:04,20.75,-47.375,18.75,1.114,-768.0,204.0,387.0
2020-01-19 11:38:04.100000,27.75,-47.375,18.75,1.129,-1041.0,-18.0,37.0
2020-01-19 11:38:04.200000,27.75,-50.063,21.625,1.622,-1622.0,-18.0,37.0
2020-01-19 11:38:04.300000,35.312,-74.313,34.312,1.622,-1622.0,-480.0,-156.0
2020-01-19 11:38:04.400000,36.875,-74.313,34.312,1.417,-1325.0,-262.0,328.0
2020-01-19 11:38:04.500000,36.875,-61.5,204.125,0.653,-501.0,-262.0,328.0
2020-01-19 11:38:04.600000,-107.125,-21.438,216.187,0.653,-501.0,-461.0,381.0
2020-01-19 11:38:04.700000,-74.25,-21.438,216.187,0.626,-185.0,-573.0,344.0
2020-01-19 11:38:04.800000,-74.25,0.125,230.812,0.764,-371.0,-573.0,344.0
2020-01-19 11:38:04.900000,-64.938,-0.375,249.875,0.764,-371.0,-742.0,245.0
2020-01-19 11:38:05,-67.125,-0.375,249.875,1.119,-801.0,-713.0,-527.0
2020-01-19 11:38:05.100000,-67.125,-21.0,273.625,1.426,-1118.0,-713.0,-527.0
2020-01-19 11:38:05.200000,-73.563,-49.125,309.937,1.426,-1118.0,-169.0,-602.0
2020-01-19 11:38:05.300000,-113.938,-49.125,309.937,1.236,-1067.0,-273.0,-275.0
2020-01-19 11:38:05.400000,-113.938,-58.75,10.125,0.869,-778.0,-273.0,-275.0
2020-01-19 11:38:05.500000,-165.75,-51.188,50.562,0.869,-778.0,-405.0,-357.0
2020-01-19 11:38:05.600000,-169.625,-51.188,50.562,0.907,-729.0,-472.0,-450.0
2020-01-19 11:38:05.700000,-169.625,-51.125,63.875,1.007,-768.0,-472.0,-450.0
2020-01-19 11:38:05.800000,-152.063,-56.375,75.812,1.007,-768.0,-256.0,-268.0
2020-01-19 11:38:05.900000,-151.75,-56.375,75.812,1.046,-979.0,-338.0,-181.0
2020-01-19 11:38:06,-151.75,-60.688,88.25,1.287,-1229.0,-338.0,-181.0
2020-01-19 11:38:06.100000,-158.438,-64.625,76.125,1.287,-1229.0,-304.0,-57.0
2020-01-19 11:38:06.200000,-155.75,-64.625,76.125,0.898,-844.0,-341.0,27.0
2020-01-19 11:38:06.300000,-155.75,-68.625,43.562,0.945,-881.0,-341.0,27.0
2020-01-19 11:38:06.400000,-127.313,-66.625,19.187,0.945,-881.0,-588.0,-1.0
2020-01-19 11:38:06.500000,-105.813,-66.625,19.187,1.106,-937.0,-564.0,-39.0
2020-01-19 11:38:06.600000,-105.813,-62.375,4.875,1.077,-917.0,-564.0,-39.0
2020-01-19 11:38:06.700000,-90.688,-62.438,6.312,1.077,-917.0,-600.0,20.0
2020-01-19 11:38:06.800000,-89.313,-62.438,6.312,1.002,-803.0,-553.0,95.0
2020-01-19 11:38:06.900000,-89.313,-60.688,3.187,1.026,-860.0,-553.0,95.0
2020-01-19 11:38:07,-87.0,-60.625,355.187,1.026,-860.0,-444.0,132.0
2020-01-19 11:38:07.100000,-82.313,-60.625,355.187,1.039,-931.0,-337.0,212.0
2020-01-19 11:38:07.200000,-82.313,-60.813,342.0,1.004,-922.0,-337.0,212.0
2020-01-19 11:38:07.300000,-76.188,-63.5,326.312,1.004,-922.0,-271.0,162.0
2020-01-19 11:38:07.400000,-71.188,-63.5,326.312,0.942,-888.0,-159.0,-112.0
2020-01-19 11:38:07.500000,-71.188,-65.875,311.875,1.084,-1067.0,-159.0,-112.0
2020-01-19 11:38:07.600000,-67.125,-70.25,301.687,1.084,-1067.0,-9.0,-351.0
2020-01-19 11:38:07.700000,-69.25,-70.25,301.687,1.131,-1076.0,64.0,-406.0
2020-01-19 11:38:07.800000,-69.25,-76.813,337.5,0.983,-894.0,64.0,-406.0
2020-01-19 11:38:07.900000,-117.813,-66.75,38.0,0.983,-894.0,83.0,-627.0
2020-01-19 11:38:08,-178.938,-66.75,38.0,0.946,-704.0,-269.0,-594.0
2020-01-19 11:38:08.100000,-178.938,-57.375,53.375,1.092,-877.0,-269.0,-594.0
2020-01-19 11:38:08.200000,171.75,-52.188,55.625,1.092,-877.0,-527.0,-322.0
2020-01-19 11:38:08.300000,-171.688,-52.188,55.625,1.036,-833.0,-537.0,-70.0
2020-01-19 11:38:08.400000,-171.688,-49.25,57.0,0.93,-757.0,-537.0,-70.0
2020-01-19 11:38:08.500000,-156.875,-48.25,58.875,0.93,-757.0,-567.0,-88.0
2020-01-19 11:38:08.600000,-137.375,-48.25,58.875,0.951,-759.0,-561.0,-175.0
2020-01-19 11:38:08.700000,-137.375,-49.5,54.875,1.08,-907.0,-561.0,-175.0
2020-01-19 11:38:08.800000,-126.438,-53.25,48.375,1.08,-907.0,-211.0,-72.0
2020-01-19 11:38:08.900000,-122.313,-53.25,48.375,1.09,-1067.0,-32.0,26.0
2020-01-19 11:38:09,-122.313,-59.5,37.312,1.213,-1213.0,-32.0,26.0
2020-01-19 11:38:09.100000,-120.375,-67.938,358.812,1.213,-1213.0,-85.0,214.0
2020-01-19 11:38:09.200000,-91.0,-67.938,358.812,1.343,-1324.0,-406.0,120.0
2020-01-19 11:38:09.300000,-91.0,-69.688,300.312,1.011,-919.0,-406.0,120.0
2020-01-19 11:38:09.400000,-56.5,-56.063,249.625,1.011,-919.0,-681.0,539.0
2020-01-19 11:38:09.500000,-31.375,-56.063,249.625,1.157,-765.0,-583.0,57.0
2020-01-19 11:38:09.600000,-31.375,-43.313,237.0,0.712,-406.0,-583.0,57.0
2020-01-19 11:38:09.700000,-55.438,-24.0,221.687,0.712,-406.0,-550.0,-124.0
2020-01-19 11:38:09.800000,-81.0,-24.0,221.687,0.73,-465.0,-829.0,-56.0
2020-01-19 11:38:09.900000,-81.0,-19.5,209.125,1.169,-823.0,-829.0,-56.0
2020-01-19 11:38:10,-94.0,-35.125,211.687,1.169,-823.0,-677.0,-494.0
2020-01-19 11:38:10.100000,-98.438,-35.125,211.687,1.298,-992.0,-281.0,-417.0
2020-01-19 11:38:10.200000,-98.438,-56.813,220.5,1.13,-1013.0,-281.0,-417.0
2020-01-19 11:38:10.300000,-109.063,-68.438,274.937,1.13,-1013.0,-69.0,-332.0
2020-01-19 11:38:10.400000,-146.375,-68.438,274.937,0.89,-823.0,-386.0,-400.0
2020-01-19 11:38:10.500000,-146.375,-59.063,314.687,1.045,-885.0,-386.0,-400.0
2020-01-19 11:38:10.600000,-166.563,-55.125,326.75,1.045,-885.0,-395.0,-220.0
2020-01-19 11:38:10.700000,-158.938,-55.125,326.75,0.944,-829.0,-315.0,-172.0
2020-01-19 11:38:10.800000,-158.938,-57.438,332.125,1.046,-983.0,-315.0,-172.0
2020-01-19 11:38:10.900000,-148.938,-62.375,329.062,1.046,-983.0,-149.0,-210.0
2020-01-19 11:38:11,-134.125,-62.375,329.062,1.021,-989.0,-189.0,-106.0
2020-01-19 11:38:11.100000,-134.125,-66.125,323.937,1.032,-1010.0,-189.0,-106.0
2020-01-19 11:38:11.200000,-125.125,-69.875,338.312,1.032,-1010.0,-131.0,3.0
2020-01-19 11:38:11.300000,-135.313,-69.875,338.312,1.035,-1027.0,-34.0,-196.0
2020-01-19 11:38:11.400000,-135.313,-72.313,9.375,1.004,-985.0,-34.0,-196.0
2020-01-19 11:38:11.500000,-152.688,-68.688,18.625,1.004,-985.0,-135.0,-345.0
2020-01-19 11:38:11.600000,-163.375,-68.688,18.625,1.162,-1102.0,-92.0,-639.0
2020-01-19 11:38:11.700000,-163.375,-64.625,4.562,0.982,-740.0,-92.0,-639.0
2020-01-19 11:38:11.800000,-165.625,-62.875,356.75,0.982,-740.0,-239.0,-535.0
2020-01-19 11:38:11.900000,-158.563,-62.875,356.75,1.009,-822.0,-272.0,-357.0
2020-01-19 11:38:12,-158.563,-61.063,352.625,0.803,-666.0,-272.0,-357.0
2020-01-19 11:38:12.100000,-162.625,-58.563,357.937,0.803,-666.0,-184.0,-596.0
2020-01-19 11:38:12.200000,-161.375,-58.563,357.937,1.11,-919.0,-1.0,-402.0
2020-01-19 11:38:12.300000,-161.375,-55.438,3.812,0.883,-787.0,-1.0,-402.0
2020-01-19 11:38:12.400000,-165.25,-56.688,3.75,0.883,-787.0,74.0,-530.0
2020-01-19 11:38:12.500000,-171.625,-56.688,3.75,1.111,-974.0,113.0,-405.0
2020-01-19 11:38:12.600000,-171.625,-60.563,5.062,0.952,-855.0,113.0,-405.0
2020-01-19 11:38:12.700000,-175.438,-64.688,3.687,0.952,-855.0,44.0,-296.0
2020-01-19 11:38:12.800000,-177.938,-64.688,3.687,1.045,-1002.0,33.0,-350.0
2020-01-19 11:38:12.900000,-177.938,-65.688,1.125,0.955,-889.0,33.0,-350.0
2020-01-19 11:38:13,-175.375,-65.375,4.187,0.955,-889.0,45.0,-307.0
2020-01-19 11:38:13.100000,-175.0,-65.375,4.187,0.981,-931.0,-185.0,-242.0
2020-01-19 11:38:13.200000,-175.0,-65.375,1.312,0.966,-917.0,-175.0,-618.0
2020-01-19 11:38:13.300000,-172.188,-64.188,357.125,1.151,-956.0,-175.0,-618.0
2020-01-19 11:38:13.400000,-163.313,-63.25,8.375,1.151,-956.0,-157.0,-549.0
2020-01-19 11:38:13.500000,-168.0,-63.25,8.375,0.992,-812.0,-170.0,-358.0
2020-01-19 11:38:13.600000,-168.0,-64.688,357.937,0.982,-899.0,-170.0,-358.0
2020-01-19 11:38:13.700000,-176.0,-61.438,357.062,0.982,-899.0,-194.0,-376.0
2020-01-19 11:38:13.800000,-170.438,-61.438,357.062,0.902,-797.0,1.0,-327.0
2020-01-19 11:38:13.900000,-170.438,-63.875,0.875,0.941,-883.0,1.0,-327.0
2020-01-19 11:38:14,-168.938,-65.813,359.812,0.941,-883.0,121.0,-406.0
2020-01-19 11:38:14.100000,-168.063,-65.813,359.812,1.1,-1016.0,37.0,-285.0
2020-01-19 11:38:14.200000,-168.063,-63.125,7.75,0.956,-912.0,37.0,-285.0
2020-01-19 11:38:14.300000,-178.875,-63.5,9.687,0.956,-912.0,87.0,-343.0
2020-01-19 11:38:14.400000,177.937,-63.5,9.687,0.929,-859.0,68.0,-495.0
2020-01-19 11:38:14.500000,177.937,-63.063,10.75,1.056,-931.0,68.0,-495.0
2020-01-19 11:38:14.600000,178.125,-63.438,13.0,1.056,-931.0,62.0,-398.0
2020-01-19 11:38:14.700000,169.312,-63.438,13.0,0.997,-913.0,75.0,-401.0
2020-01-19 11:38:14.800000,169.312,-63.063,12.5,0.965,-875.0,75.0,-401.0
2020-01-19 11:38:14.900000,165.312,-63.063,9.375,0.965,-875.0,54.0,-429.0
2020-01-19 11:38:15,164.875,-63.063,9.375,0.976,-875.0,5.0,-377.0
2020-01-19 11:38:15.100000,164.875,-64.188,5.375,0.951,-874.0,5.0,-377.0
2020-01-19 11:38:15.200000,166.937,-64.313,3.312,0.951,-874.0,2.0,-433.0
2020-01-19 11:38:15.300000,171.0,-64.313,3.312,1.024,-929.0,-18.0,-387.0
2020-01-19 11:38:15.400000,171.0,-64.688,4.125,0.985,-906.0,-18.0,-387.0
2020-01-19 11:38:15.500000,175.062,-64.5,6.25,0.985,-906.0,-6.0,-197.0
2020-01-19 11:38:15.600000,176.375,-64.5,6.25,0.935,-914.0,29.0,-137.0
2020-01-19 11:38:15.700000,176.375,-64.938,10.5,1.026,-1017.0,29.0,-137.0
2020-01-19 11:38:15.800000,178.625,-66.875,10.312,1.026,-1017.0,11.0,-101.0
2020-01-19 11:38:15.900000,-175.813,-66.875,10.312,0.946,-941.0,64.0,-120.0
2020-01-19 11:38:16,-175.813,-68.375,5.812,0.891,-881.0,64.0,-120.0
2020-01-19 11:38:16.100000,-172.0,-71.313,4.5,0.891,-881.0,-264.0,-605.0
2020-01-19 11:38:16.200000,-169.875,-71.313,4.5,1.226,-1034.0,-308.0,-512.0
2020-01-19 11:38:16.300000,-169.875,-70.313,357.625,1.076,-895.0,-308.0,-512.0
2020-01-19 11:38:16.400000,-164.438,-72.313,340.187,1.076,-895.0,-251.0,59.0
2020-01-19 11:38:16.500000,-153.313,-72.313,340.187,1.14,-1111.0,345.0,-300.0
2020-01-19 11:38:16.600000,-153.313,-73.813,319.375,0.937,-818.0,345.0,-300.0
2020-01-19 11:38:16.700000,-138.625,-71.563,308.312,0.937,-818.0,-466.0,-313.0
2020-01-19 11:38:16.800000,-147.438,-71.563,308.312,0.881,-679.0,249.0,-925.0
2020-01-19 11:38:16.900000,-147.438,-64.625,306.5,1.707,-1413.0,249.0,-925.0
2020-01-19 11:38:17,-179.75,-57.938,307.75,1.707,-1413.0,29.0,-768.0
2020-01-19 11:38:17.100000,145.687,-57.938,307.75,1.34,-1098.0,63.0,-804.0
2020-01-19 11:38:17.200000,145.687,-52.375,266.5,1.124,-783.0,63.0,-804.0
2020-01-19 11:38:17.300000,176.187,-39.625,255.75,1.124,-783.0,-158.0,166.0
2020-01-19 11:38:17.400000,-114.688,-39.625,255.75,0.75,-715.0,-614.0,-175.0
2020-01-19 11:38:17.500000,-114.688,-31.375,280.937,1.344,-1183.0,-614.0,-175.0
2020-01-19 11:38:17.600000,-117.063,-39.938,303.375,1.344,-1183.0,-361.0,-352.0
2020-01-19 11:38:17.700000,-125.438,-39.938,303.375,1.436,-1345.0,64.0,333.0
2020-01-19 11:38:17.800000,-125.438,-53.0,304.187,0.614,-512.0,64.0,333.0
2020-01-19 11:38:17.900000,-148.0,-70.188,290.75,0.614,-512.0,394.0,-92.0
2020-01-19 11:38:18,-177.5,-70.188,290.75,1.414,-1355.0,-73.0,-93.0
2020-01-19 11:38:18.100000,-177.5,-72.875,229.75,0.823,-815.0,-73.0,-93.0
2020-01-19 11:38:18.200000,-170.313,-75.563,197.875,0.823,-815.0,-114.0,-857.0
2020-01-19 11:38:18.300000,-148.438,-75.563,197.875,1.524,-1256.0,-183.0,-276.0
2020-01-19 11:38:18.400000,-148.438,-67.438,202.625,0.943,-883.0,-183.0,-276.0
2020-01-19 11:38:18.500000,-166.813,-71.5,198.125,0.943,-883.0,-276.0,46.0
2020-01-19 11:38:18.600000,-175.875,-71.5,198.125,0.46,-366.0,51.0,115.0
2020-01-19 11:38:18.700000,-175.875,-69.5,206.187,1.39,-1385.0,51.0,115.0
2020-01-19 11:38:18.800000,177.937,-70.313,200.125,1.39,-1385.0,-107.0,-66.0
2020-01-19 11:38:18.900000,-176.313,-70.313,200.125,0.982,-974.0,-61.0,45.0
2020-01-19 11:38:19,-176.313,-82.313,175.812,0.611,-607.0,-61.0,45.0
2020-01-19 11:38:19.100000,-161.813,-87.438,357.937,0.611,-607.0,-101.0,-93.0
2020-01-19 11:38:19.200000,-1.938,-87.438,357.937,1.079,-1071.0,172.0,-648.0
2020-01-19 11:38:19.300000,-1.938,-81.25,52.5,1.653,-1511.0,172.0,-648.0
2020-01-19 11:38:19.400000,-67.188,-78.25,86.562,1.653,-1511.0,42.0,-381.0
2020-01-19 11:38:19.500000,-112.438,-78.25,86.562,1.093,-1024.0,100.0,-328.0
2020-01-19 11:38:19.600000,-112.438,-76.5,138.25,0.749,-667.0,100.0,-328.0
2020-01-19 11:38:19.700000,-174.188,-66.188,173.875,0.749,-667.0,147.0,-389.0
2020-01-19 11:38:19.800000,154.375,-66.188,173.875,0.833,-722.0,263.0,-594.0
2020-01-19 11:38:19.900000,154.375,-51.813,184.625,0.895,-617.0,263.0,-594.0
2020-01-19 11:38:20,147.625,-43.063,183.562,0.895,-617.0,260.0,-904.0
2020-01-19 11:38:20.100000,149.937,-43.063,183.562,1.121,-611.0,206.0,-1208.0
2020-01-19 11:38:20.200000,149.937,-33.563,176.812,1.378,-631.0,206.0,-1208.0
2020-01-19 11:38:20.300000,157.125,-23.563,169.75,1.378,-631.0,353.0,-1080.0
2020-01-19 11:38:20.400000,163.312,-23.563,169.75,1.29,-611.0,389.0,-707.0
2020-01-19 11:38:20.500000,163.312,-21.938,163.375,0.961,-522.0,389.0,-707.0
2020-01-19 11:38:20.600000,159.437,-27.438,151.687,0.961,-522.0,290.0,-395.0
2020-01-19 11:38:20.700000,154.312,-27.438,151.687,0.657,-439.0,17.0,-584.0
2020-01-19 11:38:20.800000,154.312,-36.75,138.437,0.865,-638.0,17.0,-584.0
2020-01-19 11:38:20.900000,154.875,-47.563,122.75,0.865,-638.0,-67.0,-622.0
2020-01-19 11:38:21,165.062,-47.563,122.75,0.96,-729.0,-193.0,-486.0
2020-01-19 11:38:21.100000,165.062,-53.625,103.5,0.957,-802.0,-193.0,-486.0
2020-01-19 11:38:21.200000,172.5,-59.688,86.062,0.957,-802.0,-207.0,-389.0
2020-01-19 11:38:21.300000,-176.25,-59.688,86.062,0.879,-761.0,-266.0,-271.0
2020-01-19 11:38:21.400000,-176.25,-64.375,67.625,0.934,-854.0,-266.0,-271.0
2020-01-19 11:38:21.500000,-165.438,-64.5,53.687,0.934,-854.0,-88.0,-184.0
2020-01-19 11:38:21.600000,-158.375,-64.5,53.687,1.141,-1123.0,-91.0,-147.0
2020-01-19 11:38:21.700000,-158.375,-69.188,42.75,0.992,-977.0,-91.0,-147.0
2020-01-19 11:38:21.800000,-151.813,-75.625,24.937,0.992,-977.0,-66.0,-9.0
2020-01-19 11:38:21.900000,-148.0,-75.625,24.937,0.899,-897.0,-110.0,-91.0
2020-01-19 11:38:22,-148.0,-79.875,1.375,1.095,-1086.0,-110.0,-91.0
2020-01-19 11:38:22.100000,-137.875,-77.938,335.375,1.095,-1086.0,-129.0,-443.0
2020-01-19 11:38:22.200000,-123.188,-77.938,335.375,1.052,-946.0,-178.0,-447.0
2020-01-19 11:38:22.300000,-123.188,-73.5,340.375,0.995,-872.0,-178.0,-447.0
2020-01-19 11:38:22.400000,-134.0,-70.75,349.437,0.995,-872.0,-158.0,-262.0
2020-01-19 11:38:22.500000,-146.875,-70.75,349.437,0.798,-738.0,-13.0,-620.0
2020-01-19 11:38:22.600000,-146.875,-66.438,0.812,1.178,-1002.0,-13.0,-620.0
2020-01-19 11:38:22.700000,-153.563,-66.188,12.687,1.178,-1002.0,2.0,-567.0
2020-01-19 11:38:22.800000,-159.438,-66.188,12.687,1.047,-881.0,-81.0,-629.0
2020-01-19 11:38:22.900000,-159.438,-65.813,34.062,1.022,-802.0,-81.0,-629.0
2020-01-19 11:38:23,-173.188,-62.5,54.062,1.022,-802.0,-202.0,-408.0
2020-01-19 11:38:23.100000,-178.313,-62.5,54.062,0.891,-767.0,-160.0,-136.0
2020-01-19 11:38:23.200000,-178.313,-52.688,63.125,0.84,-814.0,323.0,214.0
2020-01-19 11:38:23.300000,-170.313,-45.688,62.625,1.294,-1235.0,323.0,214.0
2020-01-19 11:38:23.400000,-153.625,-54.563,50.187,1.294,-1235.0,295.0,-477.0
2020-01-19 11:38:23.500000,-139.063,-54.563,50.187,2.329,-2261.0,-342.0,198.0
2020-01-19 11:38:23.600000,-139.063,-84.0,316.125,0.999,-918.0,-342.0,198.0
2020-01-19 11:38:23.700000,-174.063,-37.688,209.75,0.999,-918.0,-352.0,252.0
2020-01-19 11:38:23.800000,-0.313,-37.688,209.75,0.669,-511.0,-301.0,343.0
2020-01-19 11:38:23.900000,-0.313,-17.25,202.437,0.989,-878.0,-301.0,343.0
2020-01-19 11:38:24,-41.875,-28.625,207.5,0.989,-878.0,-218.0,406.0
2020-01-19 11:38:24.100000,-50.875,-28.625,207.5,1.177,-1084.0,-64.0,-119.0
2020-01-19 11:38:24.200000,-50.875,-61.375,221.187,0.851,-841.0,-64.0,-119.0
2020-01-19 11:38:24.300000,-43.313,-86.063,247.687,0.851,-841.0,154.0,-211.0
2020-01-19 11:38:24.400000,-3.25,-86.063,247.687,1.474,-1451.0,218.0,-92.0
2020-01-19 11:38:24.500000,-3.25,-81.563,12.625,0.836,-802.0,218.0,-92.0
2020-01-19 11:38:24.600000,176.687,-74.625,23.375,0.836,-802.0,102.0,-176.0
2020-01-19 11:38:24.700000,-176.875,-74.625,23.375,0.911,-888.0,-414.0,-542.0
2020-01-19 11:38:24.800000,-176.875,-68.375,34.937,1.419,-1245.0,-414.0,-542.0
2020-01-19 11:38:24.900000,-169.063,-62.063,43.25,1.419,-1245.0,-290.0,-409.0
2020-01-19 11:38:25,-165.688,-62.063,43.25,0.805,-630.0,-231.0,-242.0
2020-01-19 11:38:25.100000,-165.688,-61.625,57.687,1.039,-984.0,-231.0,-242.0
2020-01-19 11:38:25.200000,176.5,-64.75,66.625,1.039,-984.0,86.0,28.0
2020-01-19 11:38:25.300000,172.687,-64.75,66.625,0.99,-986.0,-21.0,109.0
2020-01-19 11:38:25.400000,172.687,-66.625,71.75,0.991,-985.0,-21.0,109.0
2020-01-19 11:38:25.500000,173.562,-72.0,59.125,0.991,-985.0,-192.0,362.0
2020-01-19 11:38:25.600000,175.312,-72.0,59.125,0.755,-635.0,-38.0,228.0
2020-01-19 11:38:25.700000,175.312,-77.938,57.5,1.613,-1597.0,-38.0,228.0
2020-01-19 11:38:25.800000,173.812,-86.875,217.312,1.613,-1597.0,-111.0,-522.0
2020-01-19 11:38:25.900000,-176.875,-86.875,217.312,1.612,-1522.0,-107.0,-220.0
2020-01-19 11:38:26,-176.875,-81.188,313.75,0.555,-499.0,-107.0,-220.0
2020-01-19 11:38:26.100000,-109.0,-78.875,310.75,0.555,-499.0,-529.0,335.0
2020-01-19 11:38:26.200000,-108.375,-78.875,310.75,0.986,-762.0,0.0,-261.0
2020-01-19 11:38:26.300000,-108.375,-76.375,318.5,1.08,-1049.0,0.0,-261.0
2020-01-19 11:38:26.400000,-126.0,-67.813,310.0,1.08,-1049.0,162.0,-188.0
2020-01-19 11:38:26.500000,-122.125,-67.813,310.0,0.827,-789.0,-236.0,-205.0
2020-01-19 11:38:26.600000,-122.125,-71.375,280.937,1.094,-1049.0,-236.0,-205.0
2020-01-19 11:38:26.700000,-131.813,-71.25,291.812,1.094,-1049.0,-90.0,-521.0
2020-01-19 11:38:26.800000,-161.125,-71.25,291.812,1.006,-857.0,234.0,-553.0
2020-01-19 11:38:26.900000,-161.125,-74.563,317.125,1.197,-1036.0,234.0,-553.0
2020-01-19 11:38:27,155.687,-65.0,309.187,1.197,-1036.0,-239.0,-176.0
2020-01-19 11:38:27.100000,138.0,-65.0,309.187,1.587,-1559.0,-177.0,-917.0
2020-01-19 11:38:27.200000,138.0,-60.938,285.125,1.599,-1299.0,-177.0,-917.0
2020-01-19 11:38:27.300000,147.0,-50.5,239.312,1.599,-1299.0,-41.0,-220.0
2020-01-19 11:38:27.400000,-141.938,-50.5,239.312,0.731,-696.0,-310.0,-63.0
2020-01-19 11:38:27.500000,-141.938,-33.063,234.937,0.892,-835.0,-310.0,-63.0
2020-01-19 11:38:27.600000,-101.813,-31.875,248.375,0.892,-835.0,-354.0,-233.0
2020-01-19 11:38:27.700000,-95.063,-31.875,248.375,1.121,-1038.0,-651.0,-808.0
2020-01-19 11:38:27.800000,-95.063,-40.75,276.437,1.52,-1112.0,-651.0,-808.0
2020-01-19 11:38:27.900000,-121.0,-52.688,317.687,1.52,-1112.0,-128.0,-475.0
2020-01-19 11:38:28,-148.688,-52.688,317.687,0.968,-834.0,-255.0,-185.0
2020-01-19 11:38:28.100000,-148.688,-57.625,16.875,0.607,-519.0,-255.0,-185.0
2020-01-19 11:38:28.200000,-175.813,-56.625,37.187,0.607,-519.0,-189.0,-317.0
2020-01-19 11:38:28.300000,-168.125,-56.625,37.187,0.798,-708.0,-82.0,-464.0
2020-01-19 11:38:28.400000,-168.125,-62.0,36.5,1.61,-1540.0,-82.0,-464.0
2020-01-19 11:38:28.500000,-157.938,-70.313,25.937,1.61,-1540.0,-138.0,-29.0
2020-01-19 11:38:28.600000,-155.5,-70.313,25.937,0.629,-614.0,-35.0,-272.0
2020-01-19 11:38:28.700000,-155.5,-75.125,26.687,1.128,-1095.0,-35.0,-272.0
2020-01-19 11:38:28.800000,-158.063,-76.75,42.25,1.128,-1095.0,-215.0,-393.0
2020-01-19 11:38:28.900000,-168.75,-76.75,42.25,1.011,-907.0,-182.0,-519.0
2020-01-19 11:38:29,-168.75,-71.125,48.5,1.045,-889.0,-182.0,-519.0
2020-01-19 11:38:29.100000,-174.25,-59.75,56.375,1.045,-889.0,-200.0,-282.0
2020-01-19 11:38:29.200000,-176.625,-59.75,56.375,0.909,-841.0,-330.0,-337.0
2020-01-19 11:38:29.300000,-176.625,-57.813,49.0,0.94,-814.0,-330.0,-337.0
2020-01-19 11:38:29.400000,-171.313,-61.313,46.187,0.94,-814.0,-200.0,-173.0
2020-01-19 11:38:29.500000,-166.688,-61.313,46.187,1.065,-1032.0,-2.0,-29.0
2020-01-19 11:38:29.600000,-166.688,-66.125,47.375,1.242,-1242.0,-2.0,-29.0
2020-01-19 11:38:29.700000,-169.188,-70.188,37.125,1.242,-1242.0,29.0,16.0
2020-01-19 11:38:29.800000,-166.375,-70.188,37.125,0.872,-872.0,-64.0,-50.0
2020-01-19 11:38:29.900000,-166.375,-73.25,9.375,1.035,-1032.0,-64.0,-50.0
2020-01-19 11:38:30,-153.875,-76.125,342.062,1.035,-1032.0,-75.0,-204.0
2020-01-19 11:38:30.100000,-137.0,-76.125,342.062,1.304,-1286.0,-96.0,-547.0
2020-01-19 11:38:30.200000,-137.0,-76.875,330.687,1.076,-922.0,-96.0,-547.0
2020-01-19 11:38:30.300000,-128.688,-83.625,333.75,1.076,-922.0,-100.0,-108.0
2020-01-19 11:38:30.400000,-175.313,-83.625,333.75,0.874,-862.0,-94.0,-62.0
2020-01-19 11:38:30.500000,-175.313,-87.563,205.187,0.93,-924.0,-94.0,-62.0
2020-01-19 11:38:30.600000,-179.125,-84.75,21.25,0.93,-924.0,-87.0,-135.0
2020-01-19 11:38:30.700000,-178.25,-84.75,21.25,1.022,-1010.0,-42.0,-124.0
2020-01-19 11:38:30.800000,-178.25,-86.125,14.312,0.995,-987.0,-42.0,-124.0
2020-01-19 11:38:30.900000,-178.313,-89.75,222.187,0.995,-987.0,71.0,29.0
2020-01-19 11:38:31,-0.25,-89.75,222.187,0.989,-987.0,62.0,-62.0
2020-01-19 11:38:31.100000,-0.25,-88.0,228.437,1.033,-1030.0,62.0,-62.0
2020-01-19 11:38:31.200000,1.812,-86.625,222.687,1.033,-1030.0,33.0,-67.0
2020-01-19 11:38:31.300000,179.187,-86.625,222.687,1.011,-1009.0,-19.0,-60.0
2020-01-19 11:38:31.400000,179.187,-86.938,216.937,0.962,-960.0,-19.0,-60.0
2020-01-19 11:38:31.500000,179.5,-89.625,214.937,0.962,-960.0,68.0,71.0
2020-01-19 11:38:31.600000,-0.125,-89.625,214.937,0.97,-966.0,12.0,-249.0
2020-01-19 11:38:31.700000,-0.125,-86.5,208.062,1.031,-1001.0,12.0,-249.0
2020-01-19 11:38:31.800000,1.187,-84.0,209.062,1.031,-1001.0,70.0,63.0
2020-01-19 11:38:31.900000,-0.25,-84.0,209.062,1.068,-1064.0,-53.0,251.0
2020-01-19 11:38:32,-0.25,-87.188,208.312,0.972,-938.0,-53.0,251.0
2020-01-19 11:38:32.100000,-2.563,-86.375,301.437,0.972,-938.0,-139.0,-93.0
2020-01-19 11:38:32.200000,-3.563,-86.375,301.437,1.012,-999.0,-412.0,38.0
2020-01-19 11:38:32.300000,-3.563,-78.938,271.875,1.331,-1266.0,-412.0,38.0
2020-01-19 11:38:32.400000,-65.563,-75.625,284.5,1.331,-1266.0,-278.0,-74.0
2020-01-19 11:38:32.500000,-86.125,-75.625,284.5,0.706,-645.0,-297.0,-328.0
2020-01-19 11:38:32.600000,-86.125,-77.813,285.75,1.124,-1034.0,-297.0,-328.0
2020-01-19 11:38:32.700000,-97.438,-74.063,282.625,1.124,-1034.0,-293.0,-139.0
2020-01-19 11:38:32.800000,-116.625,-74.063,282.625,0.961,-905.0,-319.0,-310.0
2020-01-19 11:38:32.900000,-116.625,-71.875,297.812,1.011,-909.0,-319.0,-310.0
2020-01-19 11:38:33,-133.063,-70.563,292.25,1.011,-909.0,-363.0,-257.0
2020-01-19 11:38:33.100000,-128.625,-70.563,292.25,1.013,-911.0,-482.0,-168.0
2020-01-19 11:38:33.200000,-128.625,-69.5,290.812,0.964,-818.0,-482.0,-168.0
2020-01-19 11:38:33.300000,-125.063,-65.313,281.125,0.964,-818.0,-424.0,0.0
2020-01-19 11:38:33.400000,-112.375,-65.313,281.125,1.081,-995.0,-429.0,157.0
2020-01-19 11:38:33.500000,-112.375,-60.688,271.75,1.047,-943.0,-429.0,157.0
2020-01-19 11:38:33.600000,-100.5,-61.063,268.812,1.047,-943.0,-406.0,169.0
2020-01-19 11:38:33.700000,-90.188,-61.063,268.812,1.0,-899.0,-346.0,155.0
2020-01-19 11:38:33.800000,-90.188,-62.563,270.125,0.995,-920.0,-346.0,155.0
2020-01-19 11:38:33.900000,-83.125,-63.438,270.625,0.995,-920.0,-284.0,-29.0
2020-01-19 11:38:34,-81.25,-63.438,270.625,1.021,-981.0,-344.0,-302.0
2020-01-19 11:38:34.100000,-81.25,-67.5,283.75,1.122,-1025.0,-344.0,-302.0
2020-01-19 11:38:34.200000,-88.063,-71.875,320.187,1.122,-1025.0,-266.0,-232.0
2020-01-19 11:38:34.300000,-126.125,-71.875,320.187,0.999,-935.0,-282.0,-235.0
2020-01-19 11:38:34.400000,-126.125,-72.813,345.187,0.986,-916.0,-282.0,-235.0
2020-01-19 11:38:34.500000,-147.188,-71.25,359.75,0.986,-916.0,-295.0,-220.0
2020-01-19 11:38:34.600000,-154.938,-71.25,359.75,1.0,-930.0,-135.0,16.0
2020-01-19 11:38:34.700000,-154.938,-72.0,357.187,0.994,-985.0,-135.0,16.0
2020-01-19 11:38:34.800000,-148.563,-75.25,343.312,0.994,-985.0,-156.0,47.0
2020-01-19 11:38:34.900000,-132.063,-75.25,343.312,1.053,-1041.0,-95.0,224.0
2020-01-19 11:38:35,-132.063,-78.25,325.375,0.946,-915.0,-95.0,224.0
2020-01-19 11:38:35.100000,-117.938,-79.875,300.437,0.946,-915.0,-181.0,343.0
2020-01-19 11:38:35.200000,-98.375,-79.875,300.437,0.978,-898.0,-270.0,64.0
2020-01-19 11:38:35.300000,-98.375,-80.688,287.937,0.937,-895.0,-270.0,64.0
2020-01-19 11:38:35.400000,-92.75,-79.563,270.687,0.937,-895.0,-364.0,-793.0
2020-01-19 11:38:35.500000,-80.25,-79.563,270.687,1.354,-1036.0,-550.0,-188.0
2020-01-19 11:38:35.600000,-80.25,-72.875,297.875,1.262,-1121.0,-550.0,-188.0
2020-01-19 11:38:35.700000,-114.0,-63.25,345.125,1.262,-1121.0,140.0,-57.0
2020-01-19 11:38:35.800000,-146.5,-63.25,345.125,0.52,-498.0,-764.0,322.0
2020-01-19 11:38:35.900000,-146.5,-67.75,2.312,1.107,-735.0,-764.0,322.0
2020-01-19 11:38:36,-144.5,-67.5,0.062,1.107,-735.0,-646.0,663.0
2020-01-19 11:38:36.100000,-141.25,-67.5,0.062,1.524,-1211.0,473.0,-476.0
2020-01-19 11:38:36.200000,-141.25,-72.188,333.125,3.21,-3140.0,473.0,-476.0
2020-01-19 11:38:36.300000,-120.313,-74.313,314.375,3.21,-3140.0,-248.0,176.0
2020-01-19 11:38:36.400000,-93.688,-74.313,314.375,0.93,-879.0,-257.0,614.0
2020-01-19 11:38:36.500000,-93.688,-31.625,216.0,0.704,-230.0,-257.0,614.0
2020-01-19 11:38:36.600000,-25.938,-44.438,214.875,0.704,-230.0,208.0,381.0
2020-01-19 11:38:36.700000,-45.0,-44.438,214.875,1.131,-1045.0,-690.0,-210.0
2020-01-19 11:38:36.800000,-45.0,-59.125,219.25,1.239,-1008.0,-690.0,-210.0
2020-01-19 11:38:36.900000,-53.0,-75.0,240.25,1.239,-1008.0,-22.0,-301.0
2020-01-19 11:38:37,-80.875,-75.0,240.25,0.923,-873.0,362.0,33.0
2020-01-19 11:38:37.100000,-80.875,-81.563,310.875,1.477,-1432.0,362.0,33.0
2020-01-19 11:38:37.200000,-155.75,-79.875,337.375,1.477,-1432.0,148.0,367.0
2020-01-19 11:38:37.300000,156.5,-79.875,337.375,1.071,-996.0,178.0,29.0
2020-01-19 11:38:37.400000,156.5,-77.25,1.75,0.509,-477.0,178.0,29.0
2020-01-19 11:38:37.500000,132.562,-76.625,6.437,0.509,-477.0,166.0,-190.0
2020-01-19 11:38:37.600000,116.062,-76.625,6.437,1.566,-1546.0,4.0,-18.0
2020-01-19 11:38:37.700000,116.062,-83.625,357.437,0.365,-365.0,4.0,-18.0
2020-01-19 11:38:37.800000,174.062,-88.75,91.937,0.365,-365.0,181.0,631.0
2020-01-19 11:38:37.900000,-178.75,-88.75,91.937,1.082,-861.0,194.0,564.0
2020-01-19 11:38:38,-178.75,-84.063,242.062,1.62,-1507.0,194.0,564.0
2020-01-19 11:38:38.100000,-178.0,-86.125,209.812,1.62,-1507.0,111.0,261.0
2020-01-19 11:38:38.200000,-177.125,-86.125,209.812,0.896,-850.0,292.0,-445.0
2020-01-19 11:38:38.300000,-177.125,-87.125,50.187,1.243,-1124.0,-21.0,-478.0
2020-01-19 11:38:38.400000,2.75,-80.875,229.625,1.115,-1008.0,-21.0,-478.0
2020-01-19 11:38:38.500000,155.375,-72.188,253.375,1.115,-1008.0,-98.0,98.0
2020-01-19 11:38:38.600000,114.5,-72.188,253.375,0.358,-331.0,285.0,-367.0
2020-01-19 11:38:38.700000,114.5,-72.125,250.125,1.639,-1572.0,285.0,-367.0
2020-01-19 11:38:38.800000,136.437,-75.75,247.437,1.639,-1572.0,-29.0,38.0
2020-01-19 11:38:38.900000,154.312,-75.75,247.437,0.387,-385.0,38.0,-203.0
2020-01-19 11:38:39,154.312,-85.875,314.562,0.477,-431.0,38.0,-203.0
2020-01-19 11:38:39.100000,3.875,-71.813,334.812,0.477,-431.0,-180.0,-935.0
2020-01-19 11:38:39.200000,68.0,-71.813,334.812,2.334,-2132.0,147.0,-1074.0
2020-01-19 11:38:39.300000,68.0,-63.313,310.25,2.072,-1766.0,147.0,-1074.0
2020-01-19 11:38:39.400000,104.687,-63.75,259.312,2.072,-1766.0,-395.0,-329.0
2020-01-19 11:38:39.500000,-168.25,-63.75,259.312,0.653,-403.0,-280.0,-59.0
2020-01-19 11:38:39.600000,-168.25,-23.063,236.937,0.381,-252.0,-280.0,-59.0
2020-01-19 11:38:39.700000,-102.75,-6.313,238.187,0.381,-252.0,-575.0,288.0
2020-01-19 11:38:39.800000,-81.375,-6.313,238.187,1.044,-823.0,-733.0,114.0
2020-01-19 11:38:39.900000,-81.375,-19.625,252.375,1.679,-1507.0,-733.0,114.0
2020-01-19 11:38:40,-88.188,-44.063,280.375,1.679,-1507.0,-185.0,-599.0
2020-01-19 11:38:40.100000,-105.25,-44.063,280.375,0.913,-664.0,74.0,-105.0
2020-01-19 11:38:40.200000,-105.25,-59.188,338.312,0.922,-914.0,74.0,-105.0
2020-01-19 11:38:40.300000,-163.688,-46.938,22.312,0.922,-914.0,89.0,-610.0
2020-01-19 11:38:40.400000,174.625,-46.938,22.312,1.202,-1033.0,-115.0,-53.0
2020-01-19 11:38:40.500000,174.625,-38.25,27.875,0.815,-806.0,-115.0,-53.0
2020-01-19 11:38:40.600000,174.5,-53.438,17.437,0.815,-806.0,-63.0,150.0
2020-01-19 11:38:40.700000,153.75,-53.438,17.437,1.217,-1207.0,-86.0,-336.0
2020-01-19 11:38:40.800000,153.75,-69.313,333.875,1.397,-1354.0,-86.0,-336.0
2020-01-19 11:38:40.900000,-172.188,-74.813,272.062,1.397,-1354.0,-194.0,-13.0
2020-01-19 11:38:41,-119.375,-74.813,272.062,0.749,-724.0,-131.0,237.0
2020-01-19 11:38:41.100000,-119.375,-70.063,193.25,0.858,-815.0,-131.0,237.0
2020-01-19 11:38:41.200000,-53.0,-80.875,182.0,0.858,-815.0,-2.0,34.0
2020-01-19 11:38:41.300000,-41.813,-80.875,182.0,1.015,-1015.0,-99.0,-412.0
2020-01-19 11:38:41.400000,-41.813,-83.375,328.375,0.923,-820.0,-99.0,-412.0
2020-01-19 11:38:41.500000,-179.688,-71.375,330.062,0.923,-820.0,118.0,-764.0
2020-01-19 11:38:41.600000,-179.0,-71.375,330.062,1.06,-726.0,284.0,-615.0
2020-01-19 11:38:41.700000,-179.0,-54.5,341.187,0.75,-324.0,284.0,-615.0
2020-01-19 11:38:41.800000,172.625,-39.313,347.625,0.75,-324.0,384.0,-864.0
2020-01-19 11:38:41.900000,158.25,-39.313,347.625,0.986,-282.0,480.0,-1031.0
2020-01-19 11:38:42,158.25,-22.938,349.812,1.141,-95.0,480.0,-1031.0
2020-01-19 11:38:42.100000,158.125,-8.625,348.875,1.141,-95.0,563.0,-1072.0
2020-01-19 11:38:42.200000,155.75,-8.625,348.875,1.213,79.0,664.0,-1088.0
2020-01-19 11:38:42.300000,155.75,0.5,347.187,1.275,42.0,664.0,-1088.0
2020-01-19 11:38:42.400000,154.625,3.312,345.25,1.275,42.0,603.0,-968.0
2020-01-19 11:38:42.500000,153.687,3.312,345.25,1.143,-86.0,383.0,-913.0
2020-01-19 11:38:42.600000,153.687,-2.0,346.312,1.001,-154.0,383.0,-913.0
2020-01-19 11:38:42.700000,151.875,-12.688,353.25,1.001,-154.0,135.0,-741.0
2020-01-19 11:38:42.800000,154.875,-12.688,353.25,0.794,-252.0,-35.0,-654.0
2020-01-19 11:38:42.900000,154.875,-21.625,4.0,0.738,-341.0,-35.0,-654.0
2020-01-19 11:38:43,163.375,-28.688,20.75,0.738,-341.0,-105.0,-672.0
2020-01-19 11:38:43.100000,176.562,-28.688,20.75,0.862,-530.0,-88.0,-774.0
2020-01-19 11:38:43.200000,176.562,-35.313,39.75,1.065,-727.0,-88.0,-774.0
2020-01-19 11:38:43.300000,-176.188,-42.938,53.687,1.065,-727.0,-207.0,-462.0
2020-01-19 11:38:43.400000,-171.563,-42.938,53.687,0.95,-805.0,-202.0,-234.0
2020-01-19 11:38:43.500000,-171.563,-43.688,62.187,0.854,-797.0,-202.0,-234.0
2020-01-19 11:38:43.600000,-156.75,-41.188,64.0,0.854,-797.0,115.0,-8.0
2020-01-19 11:38:43.700000,-145.5,-41.188,64.0,1.178,-1173.0,674.0,-482.0
2020-01-19 11:38:43.800000,-145.5,-51.688,54.625,2.372,-2223.0,674.0,-482.0
2020-01-19 11:38:43.900000,-135.375,-78.375,26.5,2.372,-2223.0,-59.0,192.0
2020-01-19 11:38:44,-127.125,-78.375,26.5,0.851,-827.0,-230.0,293.0
2020-01-19 11:38:44.100000,-127.125,-55.125,212.5,0.459,-269.0,-230.0,293.0
2020-01-19 11:38:44.200000,4.0,-21.688,199.437,0.459,-269.0,-396.0,289.0
2020-01-19 11:38:44.300000,-38.5,-21.688,199.437,0.752,-571.0,-67.0,392.0
2020-01-19 11:38:44.400000,-38.5,-16.188,193.312,1.351,-1292.0,-67.0,392.0
2020-01-19 11:38:44.500000,-53.688,-41.75,201.812,1.351,-1292.0,-24.0,15.0
2020-01-19 11:38:44.600000,-46.938,-41.75,201.812,1.197,-1197.0,-198.0,-193.0
2020-01-19 11:38:44.700000,-46.938,-79.5,257.687,1.195,-1163.0,-198.0,-193.0
2020-01-19 11:38:44.800000,-79.75,-66.188,11.375,1.195,-1163.0,-419.0,-512.0
2020-01-19 11:38:44.900000,-179.563,-66.188,11.375,1.087,-863.0,-158.0,-79.0
2020-01-19 11:38:45,-179.563,-64.25,20.25,0.889,-872.0,-158.0,-79.0
2020-01-19 11:38:45.100000,-166.625,-66.188,32.0,0.889,-872.0,-254.0,-231.0
2020-01-19 11:38:45.200000,-156.125,-66.188,32.0,0.958,-895.0,39.0,-180.0
2020-01-19 11:38:45.300000,-156.125,-64.063,42.5,1.108,-1093.0,39.0,-180.0
2020-01-19 11:38:45.400000,-155.563,-67.563,54.25,1.108,-1093.0,87.0,82.0
2020-01-19 11:38:45.500000,-166.5,-67.563,54.25,0.982,-975.0,69.0,172.0
2020-01-19 11:38:45.600000,-166.5,-74.438,44.5,0.955,-937.0,69.0,172.0
2020-01-19 11:38:45.700000,-169.563,-79.313,39.812,0.955,-937.0,68.0,97.0
2020-01-19 11:38:45.800000,-167.563,-79.313,39.812,1.023,-1017.0,5.0,-408.0
2020-01-19 11:38:45.900000,-167.563,-85.563,25.0,1.32,-1256.0,5.0,-408.0
2020-01-19 11:38:46,-178.688,-85.063,23.687,1.32,-1256.0,-51.0,-409.0
2020-01-19 11:38:46.100000,-179.625,-85.063,23.687,0.997,-908.0,-210.0,-117.0
2020-01-19 11:38:46.200000,-179.625,-81.0,42.5,0.759,-720.0,-210.0,-117.0
2020-01-19 11:38:46.300000,160.937,-77.938,35.937,0.759,-720.0,165.0,311.0
2020-01-19 11:38:46.400000,171.687,-77.938,35.937,1.073,-1014.0,367.0,-318.0
2020-01-19 11:38:46.500000,171.687,-73.5,23.125,1.482,-1401.0,367.0,-318.0
2020-01-19 11:38:46.600000,-177.438,-76.625,356.25,1.482,-1401.0,210.0,494.0
2020-01-19 11:38:46.700000,-173.75,-76.625,356.25,0.848,-657.0,169.0,-233.0
2020-01-19 11:38:46.800000,-173.75,-77.063,323.937,0.76,-704.0,169.0,-233.0
2020-01-19 11:38:46.900000,-165.813,-82.5,298.062,0.76,-704.0,203.0,31.0
2020-01-19 11:38:47,-165.938,-82.5,298.062,1.091,-1072.0,-34.0,-197.0
2020-01-19 11:38:47.100000,-165.938,-77.875,299.187,0.897,-875.0,-34.0,-197.0
2020-01-19 11:38:47.200000,165.5,-72.813,324.437,0.897,-875.0,-74.0,-421.0
2020-01-19 11:38:47.300000,116.437,-72.813,324.437,1.174,-1094.0,-37.0,-628.0
2020-01-19 11:38:47.400000,116.437,-70.25,318.437,1.769,-1654.0,-37.0,-628.0
2020-01-19 11:38:47.500000,100.062,-73.313,291.687,1.769,-1654.0,-194.0,-1044.0
2020-01-19 11:38:47.600000,115.062,-73.313,291.687,2.125,-1841.0,-71.0,-279.0
2020-01-19 11:38:47.700000,115.062,-63.875,232.437,0.826,-775.0,-71.0,-279.0
2020-01-19 11:38:47.800000,-149.563,-23.125,227.312,0.826,-775.0,-408.0,-113.0
2020-01-19 11:38:47.900000,-97.688,-23.125,227.312,0.785,-662.0,-1222.0,1.0
2020-01-19 11:38:48,-97.688,-4.313,245.75,1.497,-865.0,-1222.0,1.0
2020-01-19 11:38:48.100000,-83.875,-19.0,279.187,1.497,-865.0,-923.0,-307.0
2020-01-19 11:38:48.200000,-109.313,-19.0,279.187,1.347,-932.0,-334.0,-608.0
2020-01-19 11:38:48.300000,-109.313,-41.75,313.25,0.938,-632.0,-334.0,-608.0
2020-01-19 11:38:48.400000,-131.438,-55.25,351.875,0.938,-632.0,-221.0,-191.0
2020-01-19 11:38:48.500000,-157.313,-55.25,351.875,0.729,-669.0,-89.0,-158.0
2020-01-19 11:38:48.600000,-157.313,-52.25,22.687,0.696,-672.0,1.0,-29.0
2020-01-19 11:38:48.700000,-161.813,-56.063,30.562,1.702,-1702.0,1.0,-29.0
2020-01-19 11:38:48.800000,-156.688,-63.438,29.312,1.702,-1702.0,-411.0,213.0
2020-01-19 11:38:48.900000,-162.938,-63.438,29.312,0.664,-477.0,-114.0,243.0
2020-01-19 11:38:49,-162.938,-75.938,41.687,1.249,-1220.0,-114.0,243.0
2020-01-19 11:38:49.100000,179.062,-87.063,208.812,1.249,-1220.0,51.0,-247.0
2020-01-19 11:38:49.200000,-177.5,-87.063,208.812,1.413,-1391.0,-96.0,-256.0
2020-01-19 11:38:49.300000,-177.5,-80.813,277.812,1.088,-1054.0,-96.0,-256.0
2020-01-19 11:38:49.400000,-70.938,-80.75,347.125,1.088,-1054.0,-42.0,692.0
2020-01-19 11:38:49.500000,-138.75,-80.75,347.125,0.706,-137.0,-157.0,656.0
2020-01-19 11:38:49.600000,-138.75,-71.563,26.75,1.801,-1670.0,-157.0,656.0
2020-01-19 11:38:49.700000,-166.063,-71.688,359.687,1.801,-1670.0,-644.0,196.0
2020-01-19 11:38:49.800000,-138.375,-71.688,359.687,1.779,-1647.0,329.0,-476.0
2020-01-19 11:38:49.900000,-138.375,-67.063,293.187,0.61,-195.0,329.0,-476.0
2020-01-19 11:38:50,-91.938,-57.875,320.437,0.61,-195.0,-741.0,-1353.0
2020-01-19 11:38:50.100000,-144.375,-57.875,320.437,1.877,-1071.0,-42.0,341.0
2020-01-19 11:38:50.200000,-144.375,-34.063,356.75,0.507,-374.0,-42.0,341.0
2020-01-19 11:38:50.300000,176.687,-15.5,23.812,0.507,-374.0,-40.0,-2101.0
2020-01-19 11:38:50.400000,-163.875,-15.5,23.812,2.627,-1577.0,279.0,-492.0
2020-01-19 11:38:50.500000,-163.875,-42.438,27.125,0.619,253.0,279.0,-492.0
2020-01-19 11:38:50.600000,-160.875,-61.063,23.0,0.619,253.0,-677.0,-634.0
2020-01-19 11:38:50.700000,164.062,-61.063,23.0,1.914,-1675.0,-85.0,-496.0
2020-01-19 11:38:50.800000,164.062,-63.563,9.75,0.529,-164.0,-85.0,-496.0
2020-01-19 11:38:50.900000,-146.688,-71.938,11.687,0.529,-164.0,-574.0,-623.0
2020-01-19 11:38:51,-141.125,-71.938,11.687,1.776,-1561.0,160.0,68.0
2020-01-19 11:38:51.100000,-141.125,-76.313,12.437,0.837,-819.0,160.0,68.0
2020-01-19 11:38:51.200000,-141.875,-78.0,344.937,0.837,-819.0,117.0,-416.0
2020-01-19 11:38:51.300000,-108.938,-78.0,344.937,0.616,-440.0,-139.0,56.0
2020-01-19 11:38:51.400000,-108.938,-77.938,314.375,1.689,-1683.0,-139.0,56.0
2020-01-19 11:38:51.500000,-116.688,-71.875,293.062,1.689,-1683.0,-142.0,-173.0
2020-01-19 11:38:51.600000,-113.063,-71.875,293.062,1.318,-1299.0,-21.0,-112.0
2020-01-19 11:38:51.700000,-113.063,-72.125,287.875,0.193,157.0,-21.0,-112.0
2020-01-19 11:38:51.800000,-121.875,-75.75,263.062,0.193,157.0,-53.0,426.0
2020-01-19 11:38:51.900000,-129.625,-75.75,263.062,1.932,-1884.0,-402.0,87.0
2020-01-19 11:38:52,-129.625,-71.25,257.875,0.872,-769.0,-402.0,87.0
2020-01-19 11:38:52.100000,-130.563,-83.313,300.562,0.872,-769.0,214.0,459.0
2020-01-19 11:38:52.200000,-179.125,-83.313,300.562,1.181,-1067.0,-93.0,-683.0
2020-01-19 11:38:52.300000,-179.125,-76.75,335.062,1.129,-895.0,-93.0,-683.0
2020-01-19 11:38:52.400000,136.562,-71.625,347.75,1.129,-895.0,-124.0,-314.0
2020-01-19 11:38:52.500000,91.75,-71.625,347.75,1.22,-1173.0,-205.0,-554.0
2020-01-19 11:38:52.600000,91.75,-68.875,341.625,1.092,-919.0,-205.0,-554.0
2020-01-19 11:38:52.700000,58.687,-73.063,311.562,1.092,-919.0,-51.0,-482.0
2020-01-19 11:38:52.800000,84.125,-73.063,311.562,2.063,-2006.0,-636.0,-389.0
2020-01-19 11:38:52.900000,84.125,-65.813,220.25,1.513,-1317.0,-636.0,-389.0
2020-01-19 11:38:53,-165.5,-34.938,204.625,1.513,-1317.0,-843.0,-191.0
2020-01-19 11:38:53.100000,-96.25,-34.938,204.625,1.127,-724.0,-1184.0,-272.0
2020-01-19 11:38:53.200000,-96.25,-17.438,243.5,1.479,-844.0,-1184.0,-272.0
2020-01-19 11:38:53.300000,-103.75,-25.938,290.375,1.479,-844.0,-351.0,-390.0
2020-01-19 11:38:53.400000,-137.563,-25.938,290.375,0.595,-281.0,-79.0,-132.0
2020-01-19 11:38:53.500000,-137.563,-37.5,325.75,0.164,-59.0,-79.0,-132.0
2020-01-19 11:38:53.600000,-152.25,-49.125,358.375,0.164,-59.0,-224.0,-389.0
2020-01-19 11:38:53.700000,-163.563,-49.125,358.375,2.255,-2210.0,-270.0,-89.0
2020-01-19 11:38:53.800000,-163.563,-54.063,2.625,0.748,-692.0,-270.0,-89.0
2020-01-19 11:38:53.900000,-161.875,-66.5,11.687,0.748,-692.0,-92.0,-38.0
2020-01-19 11:38:54,-163.688,-66.5,11.687,0.643,-636.0,-552.0,79.0
2020-01-19 11:38:54.100000,-163.688,-75.063,14.375,1.588,-1487.0,-552.0,79.0
2020-01-19 11:38:54.200000,-158.563,-73.563,342.812,1.588,-1487.0,-385.0,3.0
2020-01-19 11:38:54.300000,-130.25,-73.563,342.812,0.993,-916.0,-44.0,24.0
2020-01-19 11:38:54.400000,-130.25,-68.688,354.812,0.181,174.0,-44.0,24.0
2020-01-19 11:38:54.500000,-136.875,-71.313,13.312,0.181,174.0,-687.0,68.0
2020-01-19 11:38:54.600000,-141.375,-71.313,13.312,2.115,-2000.0,-463.0,-97.0
2020-01-19 11:38:54.700000,-141.375,-63.625,8.062,1.275,-1184.0,-463.0,-97.0
2020-01-19 11:38:54.800000,-152.438,-53.438,11.125,1.275,-1184.0,25.0,-308.0
2020-01-19 11:38:54.900000,-157.438,-53.438,11.125,1.031,-984.0,159.0,-430.0
2020-01-19 11:38:55,-157.438,-60.563,22.187,1.444,-1370.0,159.0,-430.0
2020-01-19 11:38:55.100000,-158.438,-71.375,12.437,1.444,-1370.0,-125.0,-313.0
2020-01-19 11:38:55.200000,-167.188,-71.375,12.437,0.339,38.0,-392.0,83.0
2020-01-19 11:38:55.300000,-167.188,-79.125,351.812,1.505,-1451.0,-392.0,83.0
2020-01-19 11:38:55.400000,-165.313,-71.25,295.562,1.505,-1451.0,-205.0,678.0
2020-01-19 11:38:55.500000,-112.625,-71.25,295.562,1.306,-1098.0,-178.0,-207.0
2020-01-19 11:38:55.600000,-112.625,-70.625,276.5,0.671,-614.0,-178.0,-207.0
2020-01-19 11:38:55.700000,-100.188,-68.25,260.437,0.671,-614.0,0.0,-677.0
2020-01-19 11:38:55.800000,-118.188,-68.25,260.437,1.217,-1012.0,-199.0,-611.0
2020-01-19 11:38:55.900000,-118.188,-67.0,267.0,1.244,-1066.0,-199.0,-611.0
2020-01-19 11:38:56,-167.0,-62.25,264.562,1.244,-1066.0,51.0,-828.0
2020-01-19 11:38:56.100000,178.062,-62.25,264.562,1.628,-1401.0,9.0,22.0
2020-01-19 11:38:56.200000,178.062,-43.875,240.562,1.198,-1198.0,9.0,22.0
2020-01-19 11:38:56.300000,-136.0,-34.313,260.937,1.198,-1198.0,-298.0,-644.0
2020-01-19 11:38:56.400000,-125.0,-34.313,260.937,1.288,-1076.0,-428.0,-750.0
2020-01-19 11:38:56.500000,-125.0,-39.25,295.875,1.274,-938.0,-428.0,-750.0
2020-01-19 11:38:56.600000,-145.25,-53.688,333.75,1.274,-938.0,-208.0,-394.0
2020-01-19 11:38:56.700000,-169.063,-53.688,333.75,0.938,-826.0,-162.0,-165.0
2020-01-19 11:38:56.800000,-169.063,-59.875,358.0,0.488,-430.0,-162.0,-165.0
2020-01-19 11:38:56.900000,-175.875,-63.063,4.125,0.488,-430.0,-7.0,-91.0
2020-01-19 11:38:57,-166.688,-63.063,4.125,1.204,-1201.0,-314.0,-304.0
2020-01-19 11:38:57.100000,-166.688,-68.438,357.25,1.406,-1337.0,-314.0,-304.0
2020-01-19 11:38:57.200000,-150.375,-75.438,324.625,1.406,-1337.0,49.0,-73.0
2020-01-19 11:38:57.300000,-132.438,-75.438,324.625,0.57,-564.0,-3.0,-100.0
2020-01-19 11:38:57.400000,-132.438,-82.0,319.625,1.025,-1021.0,-3.0,-100.0
2020-01-19 11:38:57.500000,-123.938,-79.188,355.75,1.025,-1021.0,-245.0,-308.0
2020-01-19 11:38:57.600000,-157.75,-79.188,355.75,1.418,-1363.0,-121.0,-291.0
2020-01-19 11:38:57.700000,-157.75,-72.563,23.812,0.887,-830.0,-121.0,-291.0
2020-01-19 11:38:57.800000,-167.063,-61.688,42.0,0.887,-830.0,-147.0,-156.0
2020-01-19 11:38:57.900000,-171.313,-61.688,42.0,0.777,-747.0,-300.0,-486.0
2020-01-19 11:38:58,-171.313,-58.188,46.562,1.102,-943.0,-300.0,-486.0
2020-01-19 11:38:58.100000,-169.875,-56.625,44.625,1.102,-943.0,-231.0,-239.0
2020-01-19 11:38:58.200000,-165.313,-56.625,44.625,0.984,-927.0,60.0,-86.0
2020-01-19 11:38:58.300000,-165.313,-61.938,39.5,1.125,-1121.0,60.0,-86.0
2020-01-19 11:38:58.400000,-169.625,-65.188,27.562,1.125,-1121.0,-22.0,0.0
2020-01-19 11:38:58.500000,-162.625,-65.188,27.562,0.948,-948.0,-116.0,176.0
2020-01-19 11:38:58.600000,-162.625,-70.688,359.0,0.924,-900.0,-116.0,176.0
2020-01-19 11:38:58.700000,-154.313,-76.125,319.125,0.924,-900.0,-301.0,-42.0
2020-01-19 11:38:58.800000,-120.438,-76.125,319.125,1.207,-1169.0,-164.0,-464.0
2020-01-19 11:38:58.900000,-120.438,-76.563,292.937,1.127,-1014.0,-164.0,-464.0
2020-01-19 11:38:59,-102.063,-75.938,297.062,1.127,-1014.0,-158.0,-250.0
2020-01-19 11:38:59.100000,-107.625,-75.938,297.062,0.704,-639.0,-15.0,333.0
2020-01-19 11:38:59.200000,-107.625,-78.125,313.687,1.263,-1219.0,-15.0,333.0
2020-01-19 11:38:59.300000,-122.875,-76.875,326.5,1.263,-1219.0,107.0,-230.0
2020-01-19 11:38:59.400000,-126.688,-76.875,326.5,1.297,-1272.0,-382.0,-406.0
2020-01-19 11:38:59.500000,-126.688,-71.313,343.625,0.93,-745.0,-382.0,-406.0
2020-01-19 11:38:59.600000,-130.563,-57.375,20.437,0.93,-745.0,-477.0,-455.0
2020-01-19 11:38:59.700000,-150.438,-57.375,20.437,1.074,-849.0,-435.0,-6.0
2020-01-19 11:38:59.800000,-150.438,-58.5,36.687,0.954,-850.0,-435.0,-6.0
2020-01-19 11:38:59.900000,-157.188,-55.5,57.187,0.954,-850.0,55.0,-22.0
2020-01-19 11:39:00,-154.063,-55.5,57.187,1.016,-1015.0,917.0,-964.0
2020-01-19 11:39:00.100000,-154.063,-53.375,59.062,2.628,-2267.0,917.0,-964.0
2020-01-19 11:39:00.200000,-149.625,-69.375,39.437,2.628,-2267.0,-75.0,-20.0
2020-01-19 11:39:00.300000,-145.313,-69.375,39.437,0.978,-975.0,-127.0,279.0
2020-01-19 11:39:00.400000,-145.313,-57.0,214.437,0.512,-411.0,-127.0,279.0
2020-01-19 11:39:00.500000,-0.25,-32.0,196.375,0.512,-411.0,-151.0,260.0
2020-01-19 11:39:00.600000,-32.25,-32.0,196.375,0.818,-761.0,-485.0,362.0
2020-01-19 11:39:00.700000,-32.25,-31.938,205.062,1.665,-1552.0,-485.0,362.0
2020-01-19 11:39:00.800000,-47.313,-55.75,238.875,1.665,-1552.0,-486.0,-266.0
2020-01-19 11:39:00.900000,-58.125,-55.75,238.875,1.276,-1150.0,-101.0,-205.0
2020-01-19 11:39:01,-58.125,-74.75,324.687,0.736,-700.0,-101.0,-205.0
2020-01-19 11:39:01.100000,-121.313,-70.313,14.562,0.736,-700.0,-258.0,-191.0
2020-01-19 11:39:01.200000,-152.688,-70.313,14.562,0.715,-640.0,-84.0,-279.0
2020-01-19 11:39:01.300000,-152.688,-59.625,28.312,1.38,-1349.0,-84.0,-279.0
2020-01-19 11:39:01.400000,-147.563,-62.313,28.875,1.38,-1349.0,-177.0,-112.0
2020-01-19 11:39:01.500000,-141.375,-62.313,28.875,1.176,-1158.0,-41.0,-3.0
2020-01-19 11:39:01.600000,-141.375,-72.5,6.625,0.636,-635.0,-41.0,-3.0
2020-01-19 11:39:01.700000,-134.063,-80.5,23.625,0.636,-635.0,-142.0,-58.0
2020-01-19 11:39:01.800000,-147.938,-80.5,23.625,1.357,-1349.0,-157.0,-92.0
2020-01-19 11:39:01.900000,-147.938,-80.938,45.312,0.871,-852.0,-157.0,-92.0
2020-01-19 11:39:02,-165.375,-75.5,45.937,0.871,-852.0,-88.0,51.0
2020-01-19 11:39:02.100000,-167.938,-75.5,45.937,0.903,-898.0,74.0,-110.0
2020-01-19 11:39:02.200000,-167.938,-73.813,38.687,1.171,-1164.0,74.0,-110.0
2020-01-19 11:39:02.300000,-165.625,-75.125,31.25,1.171,-1164.0,77.0,-91.0
2020-01-19 11:39:02.400000,-161.313,-75.125,31.25,0.894,-887.0,-186.0,-315.0
2020-01-19 11:39:02.500000,-161.313,-78.813,16.5,1.163,-1105.0,-186.0,-315.0
2020-01-19 11:39:02.600000,-164.25,-81.438,2.812,1.163,-1105.0,-108.0,-223.0
2020-01-19 11:39:02.700000,-154.625,-81.438,2.812,0.838,-801.0,101.0,31.0
2020-01-19 11:39:02.800000,-154.625,-78.625,300.125,1.045,-1040.0,101.0,31.0
2020-01-19 11:39:02.900000,-99.188,-77.938,294.062,1.045,-1040.0,351.0,24.0
2020-01-19 11:39:03,-101.375,-77.938,294.062,1.213,-1161.0,-226.0,-145.0
2020-01-19 11:39:03.100000,-101.375,-76.813,307.062,1.235,-1206.0,-226.0,-145.0
2020-01-19 11:39:03.200000,-105.188,-68.25,20.625,1.235,-1206.0,-399.0,-49.0
2020-01-19 11:39:03.300000,-150.063,-68.25,20.625,0.952,-863.0,180.0,-38.0
2020-01-19 11:39:03.400000,-150.063,-51.5,47.062,1.701,-1692.0,180.0,-38.0
2020-01-19 11:39:03.500000,-149.125,-58.188,46.187,1.701,-1692.0,-173.0,-577.0
2020-01-19 11:39:03.600000,-150.875,-58.188,46.187,1.743,-1636.0,-190.0,42.0
2020-01-19 11:39:03.700000,-150.875,-78.5,248.187,0.698,-671.0,-190.0,42.0
2020-01-19 11:39:03.800000,-19.063,-35.563,210.0,0.698,-671.0,-451.0,45.0
2020-01-19 11:39:03.900000,-34.25,-35.563,210.0,0.735,-579.0,-431.0,360.0
2020-01-19 11:39:04,-34.25,-23.0,205.125,1.148,-1002.0,-117.0,432.0
2020-01-19 11:39:04.100000,-53.063,-37.875,210.625,1.274,-1193.0,-117.0,432.0
2020-01-19 11:39:04.200000,-51.875,-63.813,227.062,1.274,-1193.0,-195.0,-108.0
2020-01-19 11:39:04.300000,-48.75,-63.813,227.062,1.274,-1255.0,18.0,-308.0
2020-01-19 11:39:04.400000,-48.75,-82.625,282.125,1.025,-978.0,18.0,-308.0
2020-01-19 11:39:04.500000,-94.563,-74.125,13.312,1.025,-978.0,-63.0,-161.0
2020-01-19 11:39:04.600000,-159.938,-74.125,13.312,0.689,-667.0,-491.0,-242.0
2020-01-19 11:39:04.700000,-159.938,-60.813,17.937,1.36,-1246.0,-491.0,-242.0
2020-01-19 11:39:04.800000,-132.938,-56.0,18.25,1.36,-1246.0,-293.0,-332.0
2020-01-19 11:39:04.900000,-124.125,-56.0,18.25,0.87,-749.0,-249.0,-180.0
2020-01-19 11:39:05,-124.125,-57.375,32.437,0.896,-842.0,-249.0,-180.0
2020-01-19 11:39:05.100000,-145.688,-66.375,29.25,0.896,-842.0,-164.0,-73.0
2020-01-19 11:39:05.200000,-153.125,-66.375,29.25,1.042,-1027.0,140.0,-31.0
2020-01-19 11:39:05.300000,-153.125,-71.375,32.0,1.083,-1074.0,140.0,-31.0
2020-01-19 11:39:05.400000,-156.563,-76.25,38.625,1.083,-1074.0,206.0,-3.0
2020-01-19 11:39:05.500000,-166.563,-76.25,38.625,1.032,-1012.0,148.0,-291.0
2020-01-19 11:39:05.600000,-166.563,-73.813,26.812,0.72,-642.0,148.0,-291.0
2020-01-19 11:39:05.700000,-171.25,-74.188,14.187,0.72,-642.0,-145.0,-568.0
2020-01-19 11:39:05.800000,-169.313,-74.188,14.187,1.236,-1089.0,-26.0,-447.0
2020-01-19 11:39:05.900000,-169.313,-73.938,343.875,1.029,-927.0,-26.0,-447.0
2020-01-19 11:39:06,-145.313,-78.5,335.812,1.029,-927.0,-108.0,-442.0
2020-01-19 11:39:06.100000,-139.313,-78.5,335.812,1.209,-1121.0,558.0,-473.0
2020-01-19 11:39:06.200000,-139.313,-77.063,328.562,1.633,-1460.0,558.0,-473.0
2020-01-19 11:39:06.300000,-123.75,-75.375,342.312,1.633,-1460.0,-90.0,152.0
2020-01-19 11:39:06.400000,-128.938,-75.375,342.312,0.409,-369.0,-525.0,-522.0
2020-01-19 11:39:06.500000,-128.938,-74.875,33.75,1.209,-956.0,-525.0,-522.0
2020-01-19 11:39:06.600000,-155.375,-67.438,43.312,1.209,-956.0,-568.0,-614.0
2020-01-19 11:39:06.700000,-141.563,-67.438,43.312,1.118,-743.0,-367.0,-319.0
2020-01-19 11:39:06.800000,-141.563,-63.0,51.75,1.125,-1015.0,-367.0,-319.0
2020-01-19 11:39:06.900000,-145.25,-57.688,58.875,1.125,-1015.0,343.0,640.0
2020-01-19 11:39:07,-140.438,-57.688,58.875,1.568,-1390.0,130.0,-1587.0
2020-01-19 11:39:07.100000,-140.438,-48.625,65.875,2.402,-1799.0,130.0,-1587.0
2020-01-19 11:39:07.200000,-137.188,-68.688,56.625,2.402,-1799.0,-142.0,108.0
2020-01-19 11:39:07.300000,-123.5,-68.688,56.625,0.757,-736.0,-121.0,52.0
2020-01-19 11:39:07.400000,-123.5,-76.438,224.5,0.92,-911.0,-121.0,52.0
2020-01-19 11:39:07.500000,-1.688,-64.813,227.625,0.92,-911.0,-18.0,-71.0
2020-01-19 11:39:07.600000,-20.125,-64.813,227.625,1.093,-1091.0,-145.0,-132.0
2020-01-19 11:39:07.700000,-20.125,-74.688,261.5,1.308,-1294.0,-145.0,-132.0
2020-01-19 11:39:07.800000,-48.375,-76.188,359.812,1.308,-1294.0,-163.0,-6.0
2020-01-19 11:39:07.900000,-134.313,-76.188,359.812,0.929,-915.0,-334.0,-318.0
2020-01-19 11:39:08,-134.313,-65.813,45.5,1.141,-1044.0,-334.0,-318.0
2020-01-19 11:39:08.100000,-164.063,-69.25,57.125,1.141,-1044.0,-160.0,-52.0
2020-01-19 11:39:08.200000,-160.313,-69.25,57.125,0.533,-506.0,33.0,-390.0
2020-01-19 11:39:08.300000,-160.313,-69.188,48.437,1.594,-1546.0,33.0,-390.0
2020-01-19 11:39:08.400000,-148.25,-64.25,57.187,1.594,-1546.0,85.0,103.0
2020-01-19 11:39:08.500000,-155.063,-64.25,57.187,0.675,-662.0,-4.0,86.0
2020-01-19 11:39:08.600000,-155.063,-71.375,30.0,1.121,-1118.0,-4.0,86.0
2020-01-19 11:39:08.700000,-149.5,-80.813,20.937,1.121,-1118.0,-17.0,-100.0
2020-01-19 11:39:08.800000,-142.438,-80.813,20.937,1.28,-1276.0,-188.0,-521.0
2020-01-19 11:39:08.900000,-142.438,-84.5,345.25,1.205,-1071.0,-188.0,-521.0
2020-01-19 11:39:09,-175.375,-87.0,217.062,1.205,-1071.0,-209.0,51.0
2020-01-19 11:39:09.100000,-178.563,-87.0,217.062,0.718,-686.0,152.0,365.0
2020-01-19 11:39:09.200000,-178.563,-85.938,35.812,0.873,-779.0,152.0,365.0
2020-01-19 11:39:09.300000,-180.0,-80.313,37.937,0.873,-779.0,229.0,151.0
2020-01-19 11:39:09.400000,175.875,-80.313,37.937,1.238,-1208.0,-37.0,222.0
2020-01-19 11:39:09.500000,175.875,-84.0,344.0,0.943,-916.0,-37.0,222.0
2020-01-19 11:39:09.600000,-177.625,-86.0,296.812,0.943,-916.0,-68.0,54.0
2020-01-19 11:39:09.700000,-176.5,-86.0,296.812,1.114,-1111.0,31.0,-216.0
2020-01-19 11:39:09.800000,-176.5,-86.063,311.125,1.302,-1284.0,31.0,-216.0
2020-01-19 11:39:09.900000,-177.313,-82.25,318.687,1.302,-1284.0,-99.0,-160.0
2020-01-19 11:39:10,-158.313,-82.25,318.687,1.011,-994.0,-147.0,62.0
2020-01-19 11:39:10.100000,-158.313,-83.5,254.812,0.64,-620.0,-147.0,62.0
2020-01-19 11:39:10.200000,-173.688,-81.563,211.625,0.64,-620.0,114.0,186.0
2020-01-19 11:39:10.300000,-64.813,-81.563,211.625,1.207,-1188.0,210.0,-40.0
2020-01-19 11:39:10.400000,-64.813,-82.125,193.0,1.078,-1057.0,210.0,-40.0
2020-01-19 11:39:10.500000,-46.313,-84.5,169.062,1.078,-1057.0,153.0,-19.0
2020-01-19 11:39:10.600000,-2.0,-84.5,169.062,0.913,-900.0,288.0,-347.0
2020-01-19 11:39:10.700000,-2.0,-74.313,5.125,0.76,-612.0,288.0,-347.0
2020-01-19 11:39:10.800000,147.875,-53.375,7.875,0.76,-612.0,358.0,-1012.0
2020-01-19 11:39:10.900000,155.687,-53.375,7.875,1.128,-349.0,310.0,-977.0
2020-01-19 11:39:11,155.687,-29.625,11.062,1.039,173.0,310.0,-977.0
2020-01-19 11:39:11.100000,165.375,-6.375,20.25,1.039,173.0,329.0,-1003.0
2020-01-19 11:39:11.200000,154.937,-6.375,20.25,1.171,508.0,458.0,-984.0
2020-01-19 11:39:11.300000,154.937,8.687,29.5,1.203,520.0,458.0,-984.0
2020-01-19 11:39:11.400000,156.437,14.437,36.75,1.203,520.0,372.0,-975.0
2020-01-19 11:39:11.500000,158.062,14.437,36.75,1.108,375.0,109.0,-831.0
2020-01-19 11:39:11.600000,158.062,10.937,43.562,0.845,108.0,109.0,-831.0
2020-01-19 11:39:11.700000,157.687,-0.063,53.562,0.845,108.0,-27.0,-837.0
2020-01-19 11:39:11.800000,161.75,-0.063,53.562,0.856,-181.0,247.0,-570.0
2020-01-19 11:39:11.900000,161.75,-15.813,65.0,1.008,-794.0,247.0,-570.0
2020-01-19 11:39:12,166.25,-34.75,75.187,1.008,-794.0,140.0,-313.0
2020-01-19 11:39:12.100000,166.375,-34.75,75.187,1.135,-1083.0,-29.0,-130.0
2020-01-19 11:39:12.200000,166.375,-55.875,77.937,0.862,-852.0,-29.0,-130.0
2020-01-19 11:39:12.300000,168.312,-69.625,72.687,0.862,-852.0,-115.0,-35.0
2020-01-19 11:39:12.400000,177.687,-69.625,72.687,0.98,-973.0,-194.0,68.0
2020-01-19 11:39:12.500000,177.687,-83.375,42.437,1.001,-980.0,-194.0,68.0
2020-01-19 11:39:12.600000,-177.188,-73.75,286.937,1.001,-980.0,2.0,183.0
2020-01-19 11:39:12.700000,-43.625,-73.75,286.937,1.108,-1093.0,-195.0,7.0
2020-01-19 11:39:12.800000,-43.625,-71.25,279.625,0.83,-807.0,-195.0,7.0
2020-01-19 11:39:12.900000,-32.625,-80.563,334.062,0.83,-807.0,-130.0,-156.0
2020-01-19 11:39:13,-80.313,-80.563,334.062,0.986,-965.0,-47.0,-568.0
2020-01-19 11:39:13.100000,-80.313,-74.813,49.625,1.02,-847.0,-47.0,-568.0
2020-01-19 11:39:13.200000,-147.938,-65.188,79.687,1.02,-847.0,112.0,-697.0
2020-01-19 11:39:13.300000,-173.375,-65.188,79.687,1.051,-779.0,18.0,-590.0
2020-01-19 11:39:13.400000,-173.375,-61.375,87.062,1.041,-858.0,18.0,-590.0
2020-01-19 11:39:13.500000,170.937,-53.688,80.062,1.041,-858.0,-159.0,-357.0
2020-01-19 11:39:13.600000,-178.75,-53.688,80.062,0.82,-721.0,-9.0,149.0
2020-01-19 11:39:13.700000,-178.75,-43.313,75.125,0.941,-930.0,-9.0,149.0
2020-01-19 11:39:13.800000,-162.75,-41.063,68.812,0.941,-930.0,796.0,-304.0
2020-01-19 11:39:13.900000,-150.438,-41.063,68.812,2.278,-2113.0,310.0,195.0
2020-01-19 11:39:14,-150.438,-63.438,52.125,1.563,-1520.0,310.0,195.0
2020-01-19 11:39:14.100000,-140.813,-63.813,223.75,1.563,-1520.0,-313.0,311.0
2020-01-19 11:39:14.200000,3.375,-63.813,223.75,0.513,-262.0,-352.0,262.0
2020-01-19 11:39:14.300000,3.375,-25.625,203.125,0.664,-499.0,-352.0,262.0
2020-01-19 11:39:14.400000,-23.625,-21.313,194.687,0.664,-499.0,-34.0,363.0
2020-01-19 11:39:14.500000,-36.563,-21.313,194.687,1.316,-1265.0,90.0,92.0
2020-01-19 11:39:14.600000,-36.563,-46.188,201.75,1.118,-1111.0,-434.0,-489.0
2020-01-19 11:39:14.700000,-38.0,-83.0,272.937,1.682,-1550.0,-434.0,-489.0
2020-01-19 11:39:14.800000,-92.75,-62.125,21.437,1.682,-1550.0,-172.0,148.0
2020-01-19 11:39:14.900000,170.125,-62.125,21.437,0.514,-462.0,-172.0,148.0
2020-01-19 11:39:15,170.125,-50.563,32.812,0.514,-462.0,-378.0,-462.0
2020-01-19 11:39:15.100000,-165.875,-50.563,32.812,0.651,-261.0,-108.0,-1142.0
2020-01-19 11:39:15.200000,-165.875,-47.063,37.25,1.627,-1154.0,-108.0,-1142.0
2020-01-19 11:39:15.300000,-176.875,-42.875,29.187,1.627,-1154.0,587.0,-859.0
2020-01-19 11:39:15.400000,-172.625,-42.875,29.187,1.409,-951.0,111.0,-386.0
2020-01-19 11:39:15.500000,-172.625,-44.063,37.937,0.788,-678.0,111.0,-386.0
2020-01-19 11:39:15.600000,-179.75,-48.125,44.25,0.788,-678.0,-168.0,-259.0
2020-01-19 11:39:15.700000,178.0,-48.125,44.25,1.042,-996.0,-424.0,-340.0
2020-01-19 11:39:15.800000,178.0,-53.875,47.812,1.03,-876.0,-93.0,34.0
2020-01-19 11:39:15.900000,-177.625,-56.5,51.687,0.953,-948.0,-93.0,34.0
2020-01-19 11:39:16,179.625,-55.188,42.25,0.953,-948.0,353.0,221.0
2020-01-19 11:39:16.100000,-177.75,-55.188,42.25,1.319,-1252.0,160.0,349.0
2020-01-19 11:39:16.200000,-177.75,-59.0,12.0,1.089,-1020.0,160.0,349.0
2020-01-19 11:39:16.300000,-162.625,-72.125,316.562,1.089,-1020.0,-274.0,-42.0
2020-01-19 11:39:16.400000,-127.063,-72.125,316.562,1.472,-1446.0,-185.0,-544.0
2020-01-19 11:39:16.500000,-127.063,-73.313,245.625,1.322,-1191.0,-185.0,-544.0
2020-01-19 11:39:16.600000,-72.5,-76.563,259.5,1.322,-1191.0,-260.0,-145.0
2020-01-19 11:39:16.700000,-106.0,-76.563,259.5,0.601,-523.0,-260.0,-145.0
2020-01-19 11:39:16.800000,-106.0,-76.313,321.687,0.601,-523.0,-581.0,-137.0
2020-01-19 11:39:16.900000,-171.063,-76.313,321.687,1.109,-935.0,-165.0,-404.0
2020-01-19 11:39:17,-171.063,-69.688,335.812,1.197,-1115.0,-165.0,-404.0
2020-01-19 11:39:17.100000,170.937,-65.375,315.562,1.197,-1115.0,400.0,-97.0
2020-01-19 11:39:17.200000,-175.938,-65.375,315.562,0.599,-436.0,-453.0,-498.0
2020-01-19 11:39:17.300000,-175.938,-64.938,312.625,0.993,-730.0,-546.0,-317.0
2020-01-19 11:39:17.400000,161.937,-69.438,323.625,1.249,-1078.0,-546.0,-317.0
2020-01-19 11:39:17.500000,145.125,-68.938,313.687,1.249,-1078.0,-38.0,-512.0
2020-01-19 11:39:17.600000,145.0,-68.938,313.687,1.564,-1478.0,-101.0,-1244.0
2020-01-19 11:39:17.700000,145.0,-65.75,290.812,2.077,-1661.0,-101.0,-1244.0
2020-01-19 11:39:17.800000,148.125,-53.25,245.062,2.077,-1661.0,-721.0,-121.0
2020-01-19 11:39:17.900000,179.437,-53.25,245.062,1.389,-1182.0,-153.0,-257.0
2020-01-19 11:39:18,179.437,-44.563,223.625,1.172,-1134.0,-153.0,-257.0
2020-01-19 11:39:18.100000,-110.188,-39.688,234.687,1.172,-1134.0,-106.0,-318.0
2020-01-19 11:39:18.200000,-100.188,-39.688,234.687,0.983,-925.0,95.0,-345.0
2020-01-19 11:39:18.300000,-100.188,-44.563,272.437,1.003,-937.0,95.0,-345.0
2020-01-19 11:39:18.400000,-143.125,-42.438,312.937,1.003,-937.0,-351.0,-515.0
2020-01-19 11:39:18.500000,179.937,-42.438,312.937,1.04,-833.0,-452.0,-614.0
2020-01-19 11:39:18.600000,179.937,-39.375,354.437,1.187,-910.0,-452.0,-614.0
2020-01-19 11:39:18.700000,179.812,-43.625,14.375,1.187,-910.0,-330.0,-194.0
2020-01-19 11:39:18.800000,-168.938,-43.625,14.375,0.75,-646.0,-330.0,-88.0
2020-01-19 11:39:18.900000,-168.938,-52.938,17.437,0.761,-681.0,-330.0,-88.0
2020-01-19 11:39:19,-166.813,-62.813,5.625,0.761,-681.0,-104.0,31.0
2020-01-19 11:39:19.100000,-155.125,-62.813,5.625,1.52,-1517.0,-155.0,-59.0
2020-01-19 11:39:19.200000,-155.125,-70.813,341.062,0.985,-971.0,-155.0,-59.0
2020-01-19 11:39:19.300000,-135.813,-74.25,317.0,0.985,-971.0,8.0,63.0
2020-01-19 11:39:19.400000,-130.813,-74.25,317.0,0.658,-655.0,-190.0,-109.0
2020-01-19 11:39:19.500000,-130.813,-74.0,348.75,1.332,-1314.0,-190.0,-109.0
2020-01-19 11:39:19.600000,-153.125,-63.375,13.937,1.332,-1314.0,-311.0,-239.0
2020-01-19 11:39:19.700000,-167.313,-63.375,13.937,1.099,-1027.0,149.0,-345.0
2020-01-19 11:39:19.800000,-167.313,-54.875,28.375,0.983,-909.0,149.0,-345.0
2020-01-19 11:39:19.900000,-169.438,-51.813,30.812,0.983,-909.0,150.0,-432.0
2020-01-19 11:39:20,-175.125,-51.813,30.812,0.929,-809.0,-340.0,-330.0
2020-01-19 11:39:20.100000,-175.125,-53.625,13.562,0.917,-786.0,-340.0,-330.0
2020-01-19 11:39:20.200000,-177.25,-61.938,350.687,0.917,-786.0,-382.0,-432.0
2020-01-19 11:39:20.300000,-165.688,-61.938,350.687,1.191,-1043.0,-155.0,-119.0
2020-01-19 11:39:20.400000,-165.688,-67.125,320.625,1.264,-1249.0,-155.0,-119.0
2020-01-19 11:39:20.500000,-146.375,-73.688,288.062,1.264,-1249.0,-25.0,-26.0
2020-01-19 11:39:20.600000,-130.188,-73.688,288.062,0.957,-957.0,105.0,-48.0
2020-01-19 11:39:20.700000,-130.188,-85.25,216.5,0.905,-898.0,105.0,-48.0
2020-01-19 11:39:20.800000,-4.5,-82.75,242.875,0.905,-898.0,-435.0,-303.0
2020-01-19 11:39:20.900000,-115.375,-82.75,242.875,1.264,-1148.0,-281.0,-421.0
2020-01-19 11:39:21,-115.375,-72.313,288.625,0.587,-298.0,-281.0,-421.0
2020-01-19 11:39:21.100000,-161.875,-69.813,315.687,0.587,-298.0,-113.0,-263.0
2020-01-19 11:39:21.200000,164.187,-69.813,315.687,1.52,-1493.0,193.0,-111.0
2020-01-19 11:39:21.300000,164.187,-74.75,314.0,1.066,-1043.0,193.0,-111.0
2020-01-19 11:39:21.400000,161.875,-73.313,0.0,1.066,-1043.0,-330.0,-40.0
2020-01-19 11:39:21.500000,101.75,-73.313,0.0,0.73,-651.0,-658.0,-1158.0
2020-01-19 11:39:21.600000,101.75,-62.75,326.625,2.345,-1931.0,-658.0,-1158.0
2020-01-19 11:39:21.700000,117.062,-55.188,284.437,2.345,-1931.0,-152.0,7.0
2020-01-19 11:39:21.800000,152.875,-55.188,284.437,0.604,-585.0,-265.0,179.0
2020-01-19 11:39:21.900000,152.875,-36.063,222.062,0.373,192.0,-265.0,179.0
2020-01-19 11:39:22,-94.125,7.0,214.312,0.373,192.0,-496.0,408.0
2020-01-19 11:39:22.100000,-69.938,7.0,214.312,0.923,-664.0,-913.0,417.0
2020-01-19 11:39:22.200000,-69.938,-4.188,236.75,1.549,-1181.0,-913.0,417.0
2020-01-19 11:39:22.300000,-77.875,-36.188,269.437,1.549,-1181.0,-200.0,-594.0
2020-01-19 11:39:22.400000,-91.188,-36.188,269.437,1.426,-1281.0,-130.0,-11.0
2020-01-19 11:39:22.500000,-91.188,-54.625,315.062,0.918,-909.0,-130.0,-11.0
2020-01-19 11:39:22.600000,-143.688,-44.875,358.687,0.918,-909.0,-52.0,-474.0
2020-01-19 11:39:22.700000,174.312,-44.875,358.687,0.876,-736.0,80.0,-475.0
2020-01-19 11:39:22.800000,174.312,-36.688,13.687,1.503,-1424.0,80.0,-475.0
2020-01-19 11:39:22.900000,-176.75,-47.625,8.875,1.503,-1424.0,-60.0,63.0
2020-01-19 11:39:23,162.687,-47.625,8.875,0.746,-741.0,-78.0,-132.0
2020-01-19 11:39:23.100000,162.687,-74.813,353.125,0.74,-724.0,-78.0,-132.0
2020-01-19 11:39:23.200000,179.375,-77.188,331.812,0.74,-724.0,-379.0,-522.0
2020-01-19 11:39:23.300000,-166.25,-77.188,331.812,1.402,-1245.0,-344.0,-91.0
2020-01-19 11:39:23.400000,-166.25,-71.063,329.812,0.881,-806.0,-344.0,-91.0
2020-01-19 11:39:23.500000,-161.188,-64.875,358.187,0.881,-806.0,-71.0,-198.0
2020-01-19 11:39:23.600000,-178.563,-64.875,358.187,0.788,-760.0,-70.0,-638.0
2020-01-19 11:39:23.700000,-178.563,-57.75,16.0,1.536,-1396.0,-70.0,-638.0
2020-01-19 11:39:23.800000,-179.813,-55.375,8.75,1.536,-1396.0,-66.0,-316.0
2020-01-19 11:39:23.900000,-177.813,-55.375,8.75,0.732,-658.0,-146.0,-311.0
2020-01-19 11:39:24,-177.813,-71.0,354.875,0.739,-655.0,-146.0,-311.0
2020-01-19 11:39:24.100000,-174.375,-76.188,337.312,0.739,-655.0,-968.0,-249.0
2020-01-19 11:39:24.200000,-164.813,-76.188,337.312,1.522,-1148.0,-589.0,-438.0
2020-01-19 11:39:24.300000,-164.813,-68.875,332.5,1.171,-913.0,-589.0,-438.0
2020-01-19 11:39:24.400000,-146.625,-60.938,346.187,1.171,-913.0,110.0,-148.0
2020-01-19 11:39:24.500000,-147.75,-60.938,346.187,0.322,-264.0,-897.0,-651.0
2020-01-19 11:39:24.600000,-147.75,-61.813,7.375,1.359,-788.0,-897.0,-651.0
2020-01-19 11:39:24.700000,-164.438,-54.813,17.812,1.359,-788.0,-813.0,-465.0
2020-01-19 11:39:24.800000,-164.063,-54.813,17.812,1.446,-1102.0,56.0,-33.0
2020-01-19 11:39:24.900000,-164.063,-46.0,26.812,1.065,-1064.0,56.0,-33.0
2020-01-19 11:39:25,-164.75,-37.688,39.437,1.065,-1064.0,482.0,-750.0
2020-01-19 11:39:25.100000,-150.25,-37.688,39.437,2.951,-2814.0,-307.0,-874.0
2020-01-19 11:39:25.200000,-150.25,-48.0,16.812,1.485,-1161.0,-307.0,-874.0
2020-01-19 11:39:25.300000,-135.875,-56.25,251.25,1.485,-1161.0,-83.0,74.0
2020-01-19 11:39:25.400000,-48.125,-56.25,251.25,0.676,-667.0,-263.0,491.0
2020-01-19 11:39:25.500000,-48.125,-50.063,201.75,1.101,-950.0,-263.0,491.0
2020-01-19 11:39:25.600000,-44.688,-58.75,209.5,1.101,-950.0,446.0,-236.0
2020-01-19 11:39:25.700000,-56.563,-58.75,209.5,2.16,-2101.0,-35.0,-193.0
2020-01-19 11:39:25.800000,-56.563,-73.938,295.75,0.745,-719.0,-35.0,-193.0
2020-01-19 11:39:25.900000,-109.375,-54.188,353.937,0.745,-719.0,-610.0,-637.0
2020-01-19 11:39:26,-156.813,-54.188,353.937,1.379,-1061.0,-65.0,-302.0
2020-01-19 11:39:26.100000,-156.813,-42.875,6.812,0.322,94.0,-65.0,-302.0
2020-01-19 11:39:26.200000,-152.75,-54.313,350.812,0.322,94.0,39.0,-100.0
2020-01-19 11:39:26.300000,-162.125,-54.313,350.812,0.776,-769.0,-204.0,-388.0
2020-01-19 11:39:26.400000,-162.125,-63.125,344.687,1.369,-1297.0,-204.0,-388.0
2020-01-19 11:39:26.500000,-171.688,-71.313,330.875,1.369,-1297.0,-61.0,-7.0
2020-01-19 11:39:26.600000,-154.5,-71.313,330.875,0.74,-738.0,-334.0,-458.0
2020-01-19 11:39:26.700000,-154.5,-72.5,38.687,1.65,-1550.0,-334.0,-458.0
2020-01-19 11:39:26.800000,158.25,-62.125,27.562,1.65,-1550.0,-207.0,-271.0
2020-01-19 11:39:26.900000,175.0,-62.125,27.562,0.721,-636.0,-130.0,-153.0
2020-01-19 11:39:27,175.0,-59.875,43.625,0.952,-931.0,-130.0,-153.0
2020-01-19 11:39:27.100000,162.375,-64.813,33.125,0.952,-931.0,-48.0,-243.0
2020-01-19 11:39:27.200000,168.875,-64.813,33.125,0.909,-875.0,63.0,-7.0
2020-01-19 11:39:27.300000,168.875,-67.75,35.625,0.986,-984.0,63.0,-7.0
2020-01-19 11:39:27.400000,162.875,-71.625,44.25,0.986,-984.0,19.0,46.0
2020-01-19 11:39:27.500000,139.0,-71.625,44.25,1.285,-1285.0,-135.0,155.0
2020-01-19 11:39:27.600000,139.0,-75.438,35.562,0.637,-603.0,-135.0,155.0
2020-01-19 11:39:27.700000,136.062,-70.125,34.437,0.637,-603.0,6.0,-88.0
2020-01-19 11:39:27.800000,142.375,-70.125,34.437,1.3,-1298.0,27.0,-801.0
2020-01-19 11:39:27.900000,142.375,-70.0,21.125,1.287,-1007.0,27.0,-801.0
2020-01-19 11:39:28,155.187,-68.063,8.937,1.287,-1007.0,-175.0,-385.0
2020-01-19 11:39:28.100000,170.625,-68.063,8.937,0.874,-766.0,-309.0,-339.0
2020-01-19 11:39:28.200000,170.625,-66.125,10.0,1.019,-910.0,-309.0,-339.0
2020-01-19 11:39:28.300000,174.625,-60.938,13.562,1.019,-910.0,205.0,-521.0
2020-01-19 11:39:28.400000,-174.0,-60.938,13.562,1.089,-935.0,2.0,-449.0
2020-01-19 11:39:28.500000,-174.0,-58.063,12.562,0.512,-247.0,2.0,-449.0
2020-01-19 11:39:28.600000,-166.0,-55.0,29.625,0.512,-247.0,-413.0,-363.0
2020-01-19 11:39:28.700000,-174.063,-55.0,29.625,1.267,-1142.0,-444.0,-64.0
2020-01-19 11:39:28.800000,-174.063,-46.563,43.75,1.129,-1037.0,-444.0,-64.0
2020-01-19 11:39:28.900000,-165.563,-41.25,51.5,1.129,-1037.0,525.0,-53.0
2020-01-19 11:39:29,-147.813,-41.25,51.5,2.119,-2053.0,450.0,-764.0
2020-01-19 11:39:29.100000,-147.813,-51.375,42.187,2.074,-1875.0,450.0,-764.0
2020-01-19 11:39:29.200000,-141.0,-66.125,280.812,2.074,-1875.0,-354.0,324.0
2020-01-19 11:39:29.300000,-56.938,-66.125,280.812,0.724,-543.0,-304.0,248.0
2020-01-19 11:39:29.400000,-56.938,-39.375,203.875,0.611,-469.0,-304.0,248.0
2020-01-19 11:39:29.500000,-36.313,-29.75,180.0,0.611,-469.0,-107.0,175.0
2020-01-19 11:39:29.600000,-49.125,-29.75,180.0,1.269,-1253.0,-640.0,-441.0
2020-01-19 11:39:29.700000,-49.125,-48.563,187.687,1.632,-1436.0,-640.0,-441.0
2020-01-19 11:39:29.800000,-55.938,-75.25,275.875,1.632,-1436.0,-109.0,-242.0
2020-01-19 11:39:29.900000,-117.0,-75.25,275.875,0.825,-782.0,-143.0,10.0
2020-01-19 11:39:30,-117.0,-65.125,356.0,0.256,-213.0,-143.0,10.0
2020-01-19 11:39:30.100000,-169.313,-50.75,357.187,0.256,-213.0,-470.0,-436.0
2020-01-19 11:39:30.200000,-156.375,-50.75,357.187,1.93,-1821.0,-348.0,-303.0
2020-01-19 11:39:30.300000,-156.375,-49.438,354.312,1.045,-938.0,-348.0,-303.0
2020-01-19 11:39:30.400000,-146.875,-67.063,343.062,1.045,-938.0,-27.0,-127.0
2020-01-19 11:39:30.500000,-141.688,-67.063,343.062,0.592,-578.0,-147.0,-144.0
2020-01-19 11:39:30.600000,-141.688,-69.375,28.937,1.028,-1008.0,-147.0,-144.0
2020-01-19 11:39:30.700000,-173.438,-64.938,37.187,1.028,-1008.0,-373.0,-248.0
2020-01-19 11:39:30.800000,-164.625,-64.938,37.187,1.537,-1471.0,-140.0,103.0
2020-01-19 11:39:30.900000,-164.625,-61.813,39.375,0.508,-478.0,-24.0,-76.0
2020-01-19 11:39:31,-163.438,-63.0,57.25,1.345,-1343.0,-24.0,-76.0
2020-01-19 11:39:31.100000,-173.375,-62.75,54.5,1.345,-1343.0,125.0,-252.0
2020-01-19 11:39:31.200000,-172.75,-62.75,54.5,1.077,-1040.0,101.0,-213.0
2020-01-19 11:39:31.300000,-172.75,-66.625,47.625,0.897,-866.0,101.0,-213.0
2020-01-19 11:39:31.400000,176.125,-74.438,19.062,0.897,-866.0,-278.0,-315.0
2020-01-19 11:39:31.500000,178.062,-74.438,19.062,0.741,-611.0,-796.0,-848.0
2020-01-19 11:39:31.600000,178.062,-75.438,342.437,1.578,-1067.0,-796.0,-848.0
2020-01-19 11:39:31.700000,-140.563,-67.0,334.375,1.578,-1067.0,-525.0,-585.0
2020-01-19 11:39:31.800000,-129.5,-67.0,334.375,1.38,-1135.0,-39.0,-121.0
2020-01-19 11:39:31.900000,-129.5,-62.125,353.5,0.242,-206.0,-39.0,-121.0
2020-01-19 11:39:32,-139.5,-61.438,25.312,0.242,-206.0,-556.0,-100.0
2020-01-19 11:39:32.100000,-166.75,-61.438,25.312,0.972,-791.0,-328.0,-67.0
2020-01-19 11:39:32.200000,-166.75,-49.938,34.687,1.321,-1278.0,-328.0,-67.0
2020-01-19 11:39:32.300000,-159.5,-43.625,44.812,1.321,-1278.0,288.0,-813.0
2020-01-19 11:39:32.400000,-151.125,-43.625,44.812,2.943,-2814.0,-177.0,-264.0
2020-01-19 11:39:32.500000,-151.125,-44.813,31.375,1.287,-1248.0,-177.0,-264.0
2020-01-19 11:39:32.600000,-144.125,-61.313,296.437,1.287,-1248.0,30.0,-555.0
2020-01-19 11:39:32.700000,-91.313,-61.313,296.437,0.887,-692.0,-299.0,38.0
2020-01-19 11:39:32.800000,-91.313,-50.125,214.937,0.628,-552.0,-299.0,38.0
2020-01-19 11:39:32.900000,-55.75,-49.75,184.062,0.628,-552.0,-555.0,368.0
2020-01-19 11:39:33,-52.75,-49.75,184.062,1.473,-1315.0,-507.0,-226.0
2020-01-19 11:39:33.100000,-52.75,-66.938,205.0,1.178,-1040.0,-507.0,-226.0
2020-01-19 11:39:33.200000,-72.625,-82.375,283.562,1.178,-1040.0,-19.0,-1.0
2020-01-19 11:39:33.300000,-130.5,-82.375,283.562,1.263,-1263.0,-24.0,273.0
2020-01-19 11:39:33.400000,-130.5,-77.125,3.0,0.582,-514.0,-24.0,273.0
2020-01-19 11:39:33.500000,162.0,-55.313,332.625,0.582,-514.0,-344.0,-553.0
2020-01-19 11:39:33.600000,-132.688,-55.313,332.625,1.48,-1330.0,-148.0,-624.0
2020-01-19 11:39:33.700000,-132.688,-41.125,337.5,1.47,-1323.0,-148.0,-624.0
2020-01-19 11:39:33.800000,-140.375,-60.563,328.625,1.47,-1323.0,-487.0,130.0
2020-01-19 11:39:33.900000,-150.0,-60.563,328.625,0.951,-807.0,-279.0,156.0
2020-01-19 11:39:34,-150.0,-88.938,120.062,0.665,-584.0,-279.0,156.0
2020-01-19 11:39:34.100000,0.312,-63.063,172.0,0.665,-584.0,-684.0,-31.0
2020-01-19 11:39:34.200000,-74.688,-63.063,172.0,1.041,-785.0,-857.0,45.0
2020-01-19 11:39:34.300000,-74.688,-46.25,170.812,1.508,-1241.0,-857.0,45.0
2020-01-19 11:39:34.400000,-71.313,-62.5,174.375,1.508,-1241.0,-185.0,158.0
2020-01-19 11:39:34.500000,-66.875,-62.5,174.375,0.68,-636.0,-174.0,-437.0
2020-01-19 11:39:34.600000,-66.875,-85.25,210.5,1.154,-1054.0,-174.0,-437.0
2020-01-19 11:39:34.700000,-4.688,-78.0,344.75,1.154,-1054.0,-61.0,-268.0
2020-01-19 11:39:34.800000,150.437,-78.0,344.75,0.973,-934.0,214.0,-707.0
2020-01-19 11:39:34.900000,150.437,-56.5,329.062,1.221,-973.0,214.0,-707.0
2020-01-19 11:39:35,174.75,-50.625,325.75,1.221,-973.0,-79.0,-340.0
2020-01-19 11:39:35.100000,164.75,-50.625,325.75,0.943,-877.0,55.0,-238.0
2020-01-19 11:39:35.200000,164.75,-67.25,323.25,0.945,-913.0,55.0,-238.0
2020-01-19 11:39:35.300000,145.0,-76.875,295.75,0.945,-913.0,-58.0,-119.0
2020-01-19 11:39:35.400000,150.625,-76.875,295.75,0.94,-931.0,-68.0,-196.0
2020-01-19 11:39:35.500000,150.625,-81.563,242.812,1.219,-1202.0,-68.0,-196.0
2020-01-19 11:39:35.600000,-160.25,-79.063,261.562,1.219,-1202.0,-82.0,-407.0
2020-01-19 11:39:35.700000,-170.813,-79.063,261.562,0.975,-883.0,-83.0,-318.0
2020-01-19 11:39:35.800000,-170.813,-75.063,296.562,0.958,-900.0,-83.0,-318.0
2020-01-19 11:39:35.900000,167.625,-68.375,316.875,0.958,-900.0,2.0,-424.0
2020-01-19 11:39:36,155.687,-68.375,316.875,0.959,-861.0,-23.0,-364.0
2020-01-19 11:39:36.100000,155.687,-64.0,329.187,0.939,-866.0,-23.0,-364.0
2020-01-19 11:39:36.200000,156.812,-69.0,334.312,0.939,-866.0,-140.0,-112.0
2020-01-19 11:39:36.300000,150.125,-69.0,334.312,0.993,-977.0,4.0,-382.0
2020-01-19 11:39:36.400000,150.125,-69.938,339.625,0.935,-854.0,4.0,-382.0
2020-01-19 11:39:36.500000,163.875,-72.688,3.5,0.935,-854.0,4.0,-87.0
2020-01-19 11:39:36.600000,153.25,-72.688,3.5,0.893,-889.0,73.0,-132.0
2020-01-19 11:39:36.700000,153.25,-70.938,8.687,1.315,-1307.0,73.0,-132.0
2020-01-19 11:39:36.800000,151.75,-74.25,6.5,1.315,-1307.0,-11.0,-86.0
2020-01-19 11:39:36.900000,151.937,-74.25,6.5,0.849,-845.0,98.0,-22.0
2020-01-19 11:39:37,151.937,-76.188,9.75,1.014,-1010.0,98.0,-22.0
2020-01-19 11:39:37.100000,146.312,-73.75,24.562,1.014,-1010.0,89.0,-82.0
2020-01-19 11:39:37.200000,137.875,-73.75,24.562,1.061,-1055.0,27.0,-150.0
2020-01-19 11:39:37.300000,137.875,-72.875,26.75,0.862,-849.0,27.0,-150.0
2020-01-19 11:39:37.400000,138.687,-72.875,25.562,0.862,-849.0,-20.0,-306.0
2020-01-19 11:39:37.500000,142.125,-72.875,25.562,1.145,-1104.0,-36.0,-238.0
2020-01-19 11:39:37.600000,142.125,-68.438,16.437,0.902,-870.0,-36.0,-238.0
2020-01-19 11:39:37.700000,145.812,-66.063,1.437,0.902,-870.0,-21.0,-339.0
2020-01-19 11:39:37.800000,150.937,-66.063,1.437,1.046,-990.0,-34.0,-392.0
2020-01-19 11:39:37.900000,150.937,-64.938,354.312,0.933,-846.0,-34.0,-392.0
2020-01-19 11:39:38,158.625,-64.813,348.875,0.933,-846.0,-100.0,-296.0
2020-01-19 11:39:38.100000,160.125,-64.813,348.875,0.99,-940.0,-139.0,-357.0
2020-01-19 11:39:38.200000,160.125,-64.313,342.812,1.011,-936.0,-139.0,-357.0
2020-01-19 11:39:38.300000,166.437,-66.313,343.125,1.011,-936.0,-128.0,-400.0
2020-01-19 11:39:38.400000,170.875,-66.313,343.125,0.977,-883.0,-169.0,-367.0
2020-01-19 11:39:38.500000,170.875,-68.0,341.812,0.966,-878.0,-169.0,-367.0
2020-01-19 11:39:38.600000,173.0,-69.125,341.125,0.966,-878.0,-72.0,-276.0
2020-01-19 11:39:38.700000,176.562,-69.125,341.125,0.969,-927.0,-34.0,-32.0
2020-01-19 11:39:38.800000,176.562,-69.75,346.937,0.96,-959.0,-34.0,-32.0
2020-01-19 11:39:38.900000,-179.438,-72.188,359.937,0.96,-959.0,127.0,-93.0
2020-01-19 11:39:39,176.562,-72.188,359.937,1.076,-1065.0,59.0,-129.0
2020-01-19 11:39:39.100000,176.562,-75.25,9.75,0.939,-929.0,59.0,-129.0
2020-01-19 11:39:39.200000,172.875,-72.313,17.062,0.939,-929.0,169.0,-70.0
2020-01-19 11:39:39.300000,149.812,-72.313,17.062,1.059,-1044.0,46.0,-169.0
2020-01-19 11:39:39.400000,149.812,-73.875,16.125,1.056,-1042.0,46.0,-169.0
2020-01-19 11:39:39.500000,148.937,-77.563,11.437,1.056,-1042.0,19.0,-165.0
2020-01-19 11:39:39.600000,154.875,-77.563,11.437,1.007,-994.0,-148.0,-171.0
2020-01-19 11:39:39.700000,154.875,-79.125,29.625,0.97,-944.0,-148.0,-171.0
2020-01-19 11:39:39.800000,138.812,-81.063,23.375,0.97,-944.0,-65.0,-174.0
2020-01-19 11:39:39.900000,145.187,-81.063,23.375,0.979,-962.0,-47.0,-18.0
2020-01-19 11:39:40,145.187,-82.188,12.75,0.93,-929.0,-47.0,-18.0
2020-01-19 11:39:40.100000,161.687,-81.0,22.875,0.93,-929.0,23.0,-21.0
2020-01-19 11:39:40.200000,155.562,-81.0,22.875,1.101,-1101.0,91.0,-19.0
2020-01-19 11:39:40.300000,155.562,-83.063,4.375,0.91,-906.0,91.0,-19.0
2020-01-19 11:39:40.400000,174.75,-81.5,11.437,0.91,-906.0,127.0,-17.0
2020-01-19 11:39:40.500000,160.562,-81.5,11.437,0.951,-943.0,3.0,-1.0
2020-01-19 11:39:40.600000,160.562,-80.063,20.812,1.081,-1081.0,3.0,-1.0
2020-01-19 11:39:40.700000,143.687,-82.313,29.875,1.081,-1081.0,88.0,-62.0
2020-01-19 11:39:40.800000,134.5,-82.313,29.875,0.98,-975.0,118.0,-562.0
2020-01-19 11:39:40.900000,134.5,-79.313,42.875,1.179,-1030.0,118.0,-562.0
2020-01-19 11:39:41,129.937,-71.5,18.187,1.179,-1030.0,38.0,-585.0
2020-01-19 11:39:41.100000,148.0,-71.5,18.187,0.923,-713.0,-144.0,-673.0
2020-01-19 11:39:41.200000,148.0,-58.375,357.687,0.903,-585.0,-144.0,-673.0
2020-01-19 11:39:41.300000,166.437,-43.25,354.062,0.903,-585.0,-257.0,-629.0
2020-01-19 11:39:41.400000,177.5,-43.25,354.062,0.866,-537.0,-221.0,-772.0
2020-01-19 11:39:41.500000,177.5,-33.875,356.875,1.004,-603.0,-221.0,-772.0
2020-01-19 11:39:41.600000,-176.75,-34.188,358.812,1.004,-603.0,-88.0,-598.0
2020-01-19 11:39:41.700000,-176.125,-34.188,358.812,0.875,-633.0,119.0,-673.0
2020-01-19 11:39:41.800000,-176.125,-40.563,358.812,1.089,-848.0,119.0,-673.0
2020-01-19 11:39:41.900000,-179.75,-46.313,3.75,1.089,-848.0,184.0,-548.0
2020-01-19 11:39:42,173.687,-46.313,3.75,1.039,-864.0,154.0,-456.0
2020-01-19 11:39:42.100000,173.687,-48.75,10.062,0.902,-763.0,154.0,-456.0
2020-01-19 11:39:42.200000,163.75,-47.75,10.812,0.902,-763.0,63.0,-434.0
2020-01-19 11:39:42.300000,161.375,-47.75,10.812,1.008,-908.0,6.0,-825.0
2020-01-19 11:39:42.400000,161.375,-47.5,6.125,1.149,-801.0,6.0,-825.0
2020-01-19 11:39:42.500000,169.375,-50.875,6.25,1.149,-801.0,-141.0,-578.0
2020-01-19 11:39:42.600000,170.125,-50.875,6.25,0.938,-726.0,-165.0,-245.0
2020-01-19 11:39:42.700000,170.125,-56.563,1.312,0.987,-942.0,-165.0,-245.0
2020-01-19 11:39:42.800000,167.0,-59.438,359.5,0.987,-942.0,133.0,-193.0
2020-01-19 11:39:42.900000,173.187,-59.438,359.5,1.057,-1031.0,120.0,-11.0
2020-01-19 11:39:43,173.187,-66.063,359.875,0.926,-919.0,-115.0,-154.0
2020-01-19 11:39:43.100000,171.937,-74.125,351.75,1.101,-1085.0,-115.0,-154.0
2020-01-19 11:39:43.200000,166.562,-78.75,335.312,1.101,-1085.0,-278.0,-132.0
2020-01-19 11:39:43.300000,178.25,-78.75,335.312,1.032,-986.0,-278.0,-132.0
2020-01-19 11:39:43.400000,178.25,-78.125,291.062,1.032,-986.0,-315.0,-161.0
2020-01-19 11:39:43.500000,-148.75,-78.125,291.062,0.835,-757.0,98.0,-352.0
2020-01-19 11:39:43.600000,-148.75,-71.25,266.687,0.93,-856.0,98.0,-352.0
2020-01-19 11:39:43.700000,-141.375,-73.625,257.625,0.93,-856.0,-306.0,-769.0
2020-01-19 11:39:43.800000,-165.438,-73.625,257.625,1.117,-751.0,-398.0,-502.0
2020-01-19 11:39:43.900000,-165.438,-72.063,246.875,1.392,-1236.0,-398.0,-502.0
2020-01-19 11:39:44,175.437,-63.813,234.25,1.392,-1236.0,-366.0,-1175.0
2020-01-19 11:39:44.100000,179.625,-63.813,234.25,1.895,-1442.0,-93.0,-309.0
2020-01-19 11:39:44.200000,179.625,-47.188,212.375,1.228,-1185.0,-93.0,-309.0
2020-01-19 11:39:44.300000,-124.75,-37.875,232.562,1.228,-1185.0,-68.0,-24.0
2020-01-19 11:39:44.400000,-91.75,-37.875,232.562,0.639,-635.0,-186.0,-359.0
2020-01-19 11:39:44.500000,-91.75,-42.875,273.687,1.147,-1074.0,-280.0,-228.0
2020-01-19 11:39:44.600000,-135.938,-58.563,306.562,1.165,-1108.0,-280.0,-228.0
2020-01-19 11:39:44.700000,-162.813,-67.938,319.0,1.165,-1108.0,97.0,-56.0
2020-01-19 11:39:44.800000,167.125,-67.938,319.0,0.806,-799.0,352.0,-5.0
2020-01-19 11:39:44.900000,167.125,-77.938,309.312,0.862,-787.0,352.0,-5.0
2020-01-19 11:39:45,151.625,-82.5,325.187,0.862,-787.0,105.0,40.0
2020-01-19 11:39:45.100000,104.5,-82.5,325.187,1.055,-1050.0,-46.0,4.0
2020-01-19 11:39:45.200000,104.5,-79.5,27.75,1.26,-1260.0,-46.0,4.0
2020-01-19 11:39:45.300000,22.562,-72.188,44.25,1.26,-1260.0,135.0,-18.0
2020-01-19 11:39:45.400000,-0.313,-72.188,44.25,1.016,-1007.0,280.0,-244.0
2020-01-19 11:39:45.500000,-0.313,-77.438,14.937,0.888,-807.0,280.0,-244.0
2020-01-19 11:39:45.600000,33.312,-73.875,308.25,0.888,-807.0,212.0,-555.0
2020-01-19 11:39:45.700000,107.0,-73.875,308.25,0.911,-691.0,279.0,-733.0
2020-01-19 11:39:45.800000,107.0,-53.688,288.437,0.896,-434.0,279.0,-733.0
2020-01-19 11:39:45.900000,141.062,-32.938,292.25,0.896,-434.0,630.0,-912.0
2020-01-19 11:39:46,143.687,-32.938,292.25,1.14,-267.0,606.0,-1058.0
2020-01-19 11:39:46.100000,143.687,-14.813,303.0,1.249,-272.0,606.0,-1058.0
2020-01-19 11:39:46.200000,141.375,-8.188,316.75,1.249,-272.0,537.0,-979.0
2020-01-19 11:39:46.300000,143.687,-8.188,316.75,1.174,-363.0,415.0,-721.0
2020-01-19 11:39:46.400000,143.687,-10.0,328.437,0.882,-295.0,415.0,-721.0
2020-01-19 11:39:46.500000,150.687,-14.313,336.812,0.882,-295.0,123.0,-748.0
2020-01-19 11:39:46.600000,151.812,-14.313,336.812,0.868,-423.0,5.0,-729.0
2020-01-19 11:39:46.700000,151.812,-22.063,345.25,0.932,-582.0,5.0,-729.0
2020-01-19 11:39:46.800000,158.875,-33.375,350.125,0.932,-582.0,-2.0,-557.0
2020-01-19 11:39:46.900000,165.937,-33.375,350.125,0.843,-634.0,-33.0,-578.0
2020-01-19 11:39:47,165.937,-41.563,355.937,0.895,-683.0,-33.0,-578.0
2020-01-19 11:39:47.100000,167.062,-48.563,1.687,0.895,-683.0,-41.0,-582.0
2020-01-19 11:39:47.200000,171.187,-48.563,1.687,0.954,-755.0,-35.0,-463.0
2020-01-19 11:39:47.300000,171.187,-53.375,2.5,0.97,-852.0,-35.0,-463.0
2020-01-19 11:39:47.400000,178.125,-59.125,7.687,0.97,-852.0,-1.0,-199.0
2020-01-19 11:39:47.500000,179.687,-59.125,7.687,1.104,-1086.0,-126.0,33.0
2020-01-19 11:39:47.600000,179.687,-66.0,10.25,0.999,-991.0,-126.0,33.0
2020-01-19 11:39:47.700000,-177.563,-72.313,7.375,0.999,-991.0,-108.0,45.0
2020-01-19 11:39:47.800000,-170.938,-72.313,7.375,0.99,-984.0,-122.0,12.0
2020-01-19 11:39:47.900000,-170.938,-77.25,8.062,0.95,-943.0,-122.0,12.0
2020-01-19 11:39:48,-164.375,-77.813,9.187,0.95,-943.0,-44.0,-106.0
2020-01-19 11:39:48.100000,-163.625,-77.813,9.187,1.076,-1070.0,-59.0,-218.0
2020-01-19 11:39:48.200000,-163.625,-77.563,17.5,0.942,-915.0,-59.0,-218.0
2020-01-19 11:39:48.300000,-170.188,-76.063,13.75,0.942,-915.0,-128.0,-347.0
2020-01-19 11:39:48.400000,-170.375,-76.063,13.75,1.039,-971.0,-99.0,-508.0
2020-01-19 11:39:48.500000,-170.375,-74.438,14.687,0.943,-789.0,-99.0,-508.0
2020-01-19 11:39:48.600000,-167.625,-69.438,23.062,0.943,-789.0,41.0,-343.0
2020-01-19 11:39:48.700000,-171.375,-69.438,23.062,0.992,-930.0,87.0,-649.0
2020-01-19 11:39:48.800000,-171.375,-60.875,34.375,1.072,-850.0,87.0,-649.0
2020-01-19 11:39:48.900000,-174.313,-56.813,48.437,1.072,-850.0,-15.0,-583.0
2020-01-19 11:39:49,177.812,-56.813,48.437,0.995,-807.0,-154.0,-229.0
2020-01-19 11:39:49.100000,177.812,-52.375,57.875,0.831,-784.0,-154.0,-229.0
2020-01-19 11:39:49.200000,-174.25,-43.25,63.562,0.831,-784.0,235.0,176.0
2020-01-19 11:39:49.300000,-157.688,-43.25,63.562,1.12,-1081.0,668.0,-691.0
2020-01-19 11:39:49.400000,-157.688,-44.188,61.562,2.484,-2291.0,668.0,-691.0
2020-01-19 11:39:49.500000,-145.875,-73.625,44.437,2.484,-2291.0,-5.0,220.0
2020-01-19 11:39:49.600000,-138.875,-73.625,44.437,0.998,-974.0,-358.0,191.0
2020-01-19 11:39:49.700000,-138.875,-54.0,209.125,0.593,-433.0,-358.0,191.0
2020-01-19 11:39:49.800000,8.25,-29.0,201.062,0.593,-433.0,-405.0,242.0
2020-01-19 11:39:49.900000,-40.0,-29.0,201.062,0.803,-651.0,-119.0,410.0
2020-01-19 11:39:50,-40.0,-31.75,194.5,1.242,-1167.0,-119.0,410.0
2020-01-19 11:39:50.100000,-46.75,-55.688,196.437,1.242,-1167.0,22.0,35.0
2020-01-19 11:39:50.200000,-42.313,-55.688,196.437,1.181,-1181.0,174.0,-35.0
2020-01-19 11:39:50.300000,-42.313,-84.125,228.937,1.007,-992.0,174.0,-35.0
2020-01-19 11:39:50.400000,-5.313,-72.0,15.187,1.007,-992.0,0.0,-287.0
2020-01-19 11:39:50.500000,168.562,-72.0,15.187,1.028,-988.0,-247.0,-568.0
2020-01-19 11:39:50.600000,168.562,-60.875,15.75,1.09,-897.0,-247.0,-568.0
2020-01-19 11:39:50.700000,-174.438,-60.813,23.25,1.09,-897.0,-238.0,-394.0
2020-01-19 11:39:50.800000,-164.875,-60.813,23.25,0.957,-840.0,-115.0,-342.0
2020-01-19 11:39:50.900000,-164.875,-65.0,34.375,0.95,-879.0,-115.0,-342.0
2020-01-19 11:39:51,-175.188,-67.875,38.625,0.95,-879.0,0.0,-335.0
2020-01-19 11:39:51.100000,-169.75,-67.875,38.625,0.991,-933.0,126.0,-105.0
2020-01-19 11:39:51.200000,-169.75,-69.813,50.937,1.056,-1044.0,126.0,-105.0
2020-01-19 11:39:51.300000,-178.938,-69.125,53.937,1.056,-1044.0,148.0,-116.0
2020-01-19 11:39:51.400000,175.937,-69.125,53.937,0.953,-935.0,99.0,-172.0
2020-01-19 11:39:51.500000,175.937,-69.375,52.375,0.981,-961.0,99.0,-172.0
2020-01-19 11:39:51.600000,173.062,-71.25,50.062,0.981,-961.0,87.0,-174.0
2020-01-19 11:39:51.700000,171.5,-71.25,50.062,0.997,-978.0,62.0,-169.0
2020-01-19 11:39:51.800000,171.5,-74.25,49.062,0.984,-968.0,62.0,-169.0
2020-01-19 11:39:51.900000,172.187,-77.875,56.5,0.984,-968.0,41.0,-194.0
2020-01-19 11:39:52,164.312,-77.875,56.5,0.967,-947.0,-23.0,-255.0
2020-01-19 11:39:52.100000,164.312,-78.5,55.312,1.002,-969.0,-23.0,-255.0
2020-01-19 11:39:52.200000,166.687,-77.438,49.937,1.002,-969.0,-42.0,-63.0
2020-01-19 11:39:52.300000,171.062,-77.438,49.937,1.052,-1050.0,-111.0,112.0
2020-01-19 11:39:52.400000,171.062,-74.875,37.75,1.026,-1014.0,-111.0,112.0
2020-01-19 11:39:52.500000,-171.813,-77.0,4.937,1.026,-1014.0,-135.0,-9.0
2020-01-19 11:39:52.600000,-143.188,-77.0,4.937,0.947,-938.0,-110.0,-31.0
2020-01-19 11:39:52.700000,-143.188,-74.125,285.187,0.987,-981.0,-110.0,-31.0
2020-01-19 11:39:52.800000,-69.188,-70.25,264.437,0.987,-981.0,-39.0,-52.0
2020-01-19 11:39:52.900000,-55.563,-70.25,264.437,1.033,-1031.0,-65.0,-374.0
2020-01-19 11:39:53,-55.563,-82.188,293.0,1.023,-950.0,-65.0,-374.0
2020-01-19 11:39:53.100000,-74.75,-84.563,33.687,1.023,-950.0,-47.0,-265.0
2020-01-19 11:39:53.200000,-178.313,-84.563,33.687,1.024,-988.0,-145.0,-24.0
2020-01-19 11:39:53.300000,-178.313,-73.875,59.937,0.96,-949.0,-145.0,-24.0
2020-01-19 11:39:53.400000,-177.688,-66.625,56.5,0.96,-949.0,117.0,27.0
2020-01-19 11:39:53.500000,-147.688,-66.625,56.5,1.033,-1027.0,482.0,43.0
2020-01-19 11:39:53.600000,-147.688,-69.25,45.437,1.435,-1351.0,482.0,43.0
2020-01-19 11:39:53.700000,-126.188,-83.375,0.312,1.435,-1351.0,-182.0,98.0
2020-01-19 11:39:53.800000,-173.438,-83.375,0.312,1.077,-1057.0,-390.0,697.0
2020-01-19 11:39:53.900000,-173.438,-65.063,216.625,1.064,-703.0,-390.0,697.0
2020-01-19 11:39:54,9.75,-47.625,208.187,1.064,-703.0,-556.0,545.0
2020-01-19 11:39:54.100000,-24.313,-47.625,208.187,0.871,-392.0,-697.0,253.0
2020-01-19 11:39:54.200000,-24.313,-30.25,212.875,0.804,-312.0,-697.0,253.0
2020-01-19 11:39:54.300000,-47.875,-20.688,205.437,0.804,-312.0,-491.0,295.0
2020-01-19 11:39:54.400000,-63.188,-20.688,205.437,0.794,-550.0,-448.0,552.0
2020-01-19 11:39:54.500000,-63.188,-26.25,204.312,1.251,-1030.0,-448.0,552.0
2020-01-19 11:39:54.600000,-67.688,-51.375,210.687,1.251,-1030.0,113.0,222.0
2020-01-19 11:39:54.700000,-59.625,-51.375,210.687,1.358,-1335.0,52.0,-583.0
2020-01-19 11:39:54.800000,-59.625,-74.938,183.25,1.324,-1188.0,52.0,-583.0
2020-01-19 11:39:54.900000,6.125,-88.938,212.187,1.324,-1188.0,2.0,38.0
2020-01-19 11:39:55,179.312,-88.938,212.187,0.94,-940.0,-153.0,76.0
2020-01-19 11:39:55.100000,179.312,-70.063,325.187,0.96,-945.0,-153.0,76.0
2020-01-19 11:39:55.200000,-62.125,-65.438,355.312,0.96,-945.0,-335.0,-114.0
2020-01-19 11:39:55.300000,-99.313,-65.438,355.312,1.052,-991.0,-284.0,-336.0
2020-01-19 11:39:55.400000,-99.313,-69.938,11.25,1.183,-1099.0,-284.0,-336.0
2020-01-19 11:39:55.500000,-107.938,-77.188,27.812,1.183,-1099.0,-189.0,-130.0
2020-01-19 11:39:55.600000,-144.563,-77.188,27.812,1.008,-982.0,-151.0,-189.0
2020-01-19 11:39:55.700000,-144.563,-77.313,42.625,0.948,-917.0,-151.0,-189.0
2020-01-19 11:39:55.800000,-171.75,-76.688,11.687,0.948,-917.0,-178.0,-274.0
2020-01-19 11:39:55.900000,-151.438,-76.688,11.687,0.989,-934.0,-256.0,-328.0
2020-01-19 11:39:56,-151.438,-72.188,346.75,1.011,-922.0,-256.0,-328.0
2020-01-19 11:39:56.100000,-140.125,-67.938,348.812,1.011,-922.0,-267.0,-310.0
2020-01-19 11:39:56.200000,-145.125,-67.938,348.812,0.917,-821.0,-146.0,-404.0
2020-01-19 11:39:56.300000,-145.125,-65.813,356.562,1.118,-1033.0,-146.0,-404.0
2020-01-19 11:39:56.400000,-150.563,-66.5,359.937,1.118,-1033.0,-25.0,-51.0
2020-01-19 11:39:56.500000,-154.625,-66.5,359.937,0.943,-942.0,-22.0,-178.0
2020-01-19 11:39:56.600000,-154.625,-69.375,5.5,1.025,-1010.0,-22.0,-178.0
2020-01-19 11:39:56.700000,-158.438,-74.188,0.937,1.025,-1010.0,-8.0,-104.0
2020-01-19 11:39:56.800000,-156.125,-74.188,0.937,0.966,-961.0,-40.0,-41.0
2020-01-19 11:39:56.900000,-156.125,-78.438,349.625,1.026,-1025.0,-40.0,-41.0
2020-01-19 11:39:57,-148.938,-77.438,353.937,1.026,-1025.0,-31.0,-207.0
2020-01-19 11:39:57.100000,-151.313,-77.438,353.937,1.034,-1013.0,-43.0,-347.0
2020-01-19 11:39:57.200000,-151.313,-75.313,19.562,0.846,-771.0,-43.0,-347.0
2020-01-19 11:39:57.300000,-171.0,-71.625,19.125,0.846,-771.0,-19.0,-533.0
2020-01-19 11:39:57.400000,-175.0,-71.625,19.125,1.08,-940.0,-32.0,-456.0
2020-01-19 11:39:57.500000,-175.0,-63.0,19.5,0.863,-733.0,-32.0,-456.0
2020-01-19 11:39:57.600000,-179.188,-59.75,18.437,0.863,-733.0,121.0,-504.0
2020-01-19 11:39:57.700000,176.0,-59.75,18.437,0.984,-837.0,224.0,-332.0
2020-01-19 11:39:57.800000,176.0,-57.188,20.937,0.98,-895.0,224.0,-332.0
2020-01-19 11:39:57.900000,169.5,-60.938,20.687,0.98,-895.0,305.0,-311.0
2020-01-19 11:39:58,162.062,-60.938,20.687,1.078,-987.0,260.0,-271.0
2020-01-19 11:39:58.100000,162.062,-65.875,25.125,0.967,-892.0,259.0,-154.0
2020-01-19 11:39:58.200000,155.937,-65.813,25.437,0.984,-937.0,259.0,-154.0
2020-01-19 11:39:58.300000,151.437,-64.25,18.937,0.984,-937.0,367.0,-208.0
2020-01-19 11:39:58.400000,151.375,-64.25,18.937,0.967,-871.0,285.0,-214.0
2020-01-19 11:39:58.500000,151.375,-62.375,15.937,0.995,-929.0,285.0,-214.0
2020-01-19 11:39:58.600000,150.062,-61.813,13.625,0.995,-929.0,272.0,-349.0
2020-01-19 11:39:58.700000,144.187,-61.813,13.625,0.955,-847.0,245.0,-478.0
2020-01-19 11:39:58.800000,144.187,-62.125,15.0,0.992,-835.0,245.0,-478.0
2020-01-19 11:39:58.900000,143.312,-57.188,11.25,0.992,-835.0,226.0,-506.0
2020-01-19 11:39:59,142.562,-57.188,11.25,0.985,-815.0,154.0,-423.0
2020-01-19 11:39:59.100000,142.562,-57.313,10.125,0.899,-779.0,154.0,-423.0
2020-01-19 11:39:59.200000,145.312,-59.938,7.812,0.899,-779.0,133.0,-450.0
2020-01-19 11:39:59.300000,151.062,-59.938,7.812,0.943,-819.0,204.0,-392.0
2020-01-19 11:39:59.400000,151.062,-62.0,7.937,0.974,-869.0,204.0,-392.0
2020-01-19 11:39:59.500000,156.937,-63.313,14.5,0.974,-869.0,126.0,-203.0
2020-01-19 11:39:59.600000,157.0,-63.313,14.5,1.055,-1028.0,114.0,-142.0
2020-01-19 11:39:59.700000,157.0,-65.563,20.375,0.984,-968.0,114.0,-142.0
2020-01-19 11:39:59.800000,157.937,-67.938,23.687,0.984,-968.0,96.0,-93.0
2020-01-19 11:39:59.900000,166.187,-67.938,23.687,0.988,-979.0,107.0,-102.0
2020-01-19 11:40:00,166.187,-68.938,21.437,0.971,-960.0,107.0,-102.0
2020-01-19 11:40:00.100000,171.625,-72.188,20.0,0.971,-960.0,113.0,-51.0
2020-01-19 11:40:00.200000,173.312,-72.188,20.0,0.956,-948.0,54.0,-158.0
2020-01-19 11:40:00.300000,173.312,-76.188,14.312,1.08,-1068.0,54.0,-158.0
2020-01-19 11:40:00.400000,173.437,-78.313,10.062,1.08,-1068.0,6.0,-284.0
2020-01-19 11:40:00.500000,171.75,-78.313,10.062,1.027,-987.0,-17.0,-294.0
2020-01-19 11:40:00.600000,171.75,-73.5,10.312,1.003,-959.0,-17.0,-294.0
2020-01-19 11:40:00.700000,166.0,-74.313,358.375,1.003,-959.0,-53.0,-234.0
2020-01-19 11:40:00.800000,164.375,-74.313,358.375,0.943,-912.0,-76.0,-222.0
2020-01-19 11:40:00.900000,164.375,-78.188,337.375,1.009,-982.0,-76.0,-222.0
2020-01-19 11:40:01,173.187,-78.125,311.312,1.009,-982.0,-102.0,-264.0
2020-01-19 11:40:01.100000,-166.563,-78.125,311.312,0.97,-928.0,-150.0,-312.0
2020-01-19 11:40:01.200000,-166.563,-74.75,307.5,1.0,-939.0,-150.0,-312.0
2020-01-19 11:40:01.300000,-162.0,-71.25,312.937,1.0,-939.0,-219.0,-293.0
2020-01-19 11:40:01.400000,-162.0,-71.25,312.937,0.937,-863.0,-270.0,-254.0
2020-01-19 11:40:01.500000,-162.0,-70.688,317.75,0.991,-920.0,-270.0,-254.0
2020-01-19 11:40:01.600000,-159.25,-70.813,320.687,0.991,-920.0,-190.0,-208.0
2020-01-19 11:40:01.700000,-152.938,-70.813,320.687,1.011,-971.0,-86.0,-98.0
2020-01-19 11:40:01.800000,-152.938,-71.938,329.687,1.096,-1089.0,-86.0,-98.0
2020-01-19 11:40:01.900000,-150.438,-74.563,338.312,1.096,-1089.0,23.0,13.0
2020-01-19 11:40:02,-153.625,-74.563,338.312,0.984,-984.0,24.0,38.0
2020-01-19 11:40:02.100000,-153.625,-78.5,350.312,0.961,-960.0,24.0,38.0
2020-01-19 11:40:02.200000,-163.125,-78.063,351.937,0.961,-960.0,48.0,-13.0
2020-01-19 11:40:02.300000,-166.25,-78.063,351.937,0.846,-845.0,-106.0,-478.0
2020-01-19 11:40:02.400000,-166.25,-80.438,352.312,1.316,-1222.0,-106.0,-478.0
2020-01-19 11:40:02.500000,-169.938,-80.0,346.0,1.316,-1222.0,-46.0,-175.0
2020-01-19 11:40:02.600000,-167.188,-80.0,346.0,0.618,-591.0,302.0,-56.0
2020-01-19 11:40:02.700000,-167.188,-80.625,325.375,1.204,-1165.0,302.0,-56.0
2020-01-19 11:40:02.800000,-143.063,-78.938,326.25,1.204,-1165.0,266.0,-756.0
2020-01-19 11:40:02.900000,-138.625,-78.938,326.25,1.348,-1085.0,-373.0,-540.0
2020-01-19 11:40:03,-138.625,-72.25,354.812,1.085,-865.0,-373.0,-540.0
2020-01-19 11:40:03.100000,-153.375,-63.938,32.312,1.085,-865.0,-48.0,-171.0
2020-01-19 11:40:03.200000,-173.188,-63.938,32.312,0.643,-618.0,-84.0,253.0
2020-01-19 11:40:03.300000,-173.188,-54.875,58.812,1.411,-1386.0,-84.0,253.0
2020-01-19 11:40:03.400000,-166.813,-49.875,59.0,1.411,-1386.0,-28.0,-1317.0
2020-01-19 11:40:03.500000,-147.188,-49.875,59.0,2.335,-1928.0,-336.0,34.0
2020-01-19 11:40:03.600000,-147.188,-69.563,40.437,1.053,-998.0,-336.0,34.0
2020-01-19 11:40:03.700000,-125.25,-72.625,220.562,1.053,-998.0,-303.0,-95.0
2020-01-19 11:40:03.800000,-5.875,-72.625,220.562,0.741,-670.0,-340.0,29.0
2020-01-19 11:40:03.900000,-5.875,-44.0,222.25,0.868,-799.0,-340.0,29.0
2020-01-19 11:40:04,-45.688,-41.5,217.625,0.868,-799.0,-256.0,233.0
2020-01-19 11:40:04.100000,-52.313,-41.5,217.625,1.213,-1163.0,-78.0,-2.0
2020-01-19 11:40:04.200000,-52.313,-57.813,223.812,1.348,-1346.0,-78.0,-2.0
2020-01-19 11:40:04.300000,-48.438,-75.188,255.562,1.348,-1346.0,5.0,-140.0
2020-01-19 11:40:04.400000,-65.375,-75.188,255.562,0.756,-743.0,-291.0,-432.0
2020-01-19 11:40:04.500000,-65.375,-75.313,1.625,1.207,-1089.0,-291.0,-432.0
2020-01-19 11:40:04.600000,-159.438,-65.188,27.875,1.207,-1089.0,-358.0,-559.0
2020-01-19 11:40:04.700000,-164.563,-65.188,27.875,1.0,-749.0,-257.0,-268.0
2020-01-19 11:40:04.800000,-164.563,-61.938,36.687,0.709,-605.0,-257.0,-268.0
2020-01-19 11:40:04.900000,-162.375,-67.75,47.875,0.709,-605.0,174.0,-225.0
2020-01-19 11:40:05,-169.625,-67.75,47.875,1.39,-1361.0,-46.0,-17.0
2020-01-19 11:40:05.100000,-169.625,-71.0,61.562,0.985,-984.0,-46.0,-17.0
2020-01-19 11:40:05.200000,-177.25,-76.063,59.625,0.985,-984.0,149.0,247.0
2020-01-19 11:40:05.300000,174.375,-76.063,59.625,0.958,-914.0,102.0,55.0
2020-01-19 11:40:05.400000,174.375,-78.75,58.5,0.956,-949.0,102.0,55.0
2020-01-19 11:40:05.500000,175.187,-78.438,57.937,0.956,-949.0,118.0,-274.0
2020-01-19 11:40:05.600000,166.625,-78.438,57.937,1.265,-1230.0,7.0,-683.0
2020-01-19 11:40:05.700000,166.625,-81.125,50.812,1.251,-1049.0,7.0,-683.0
2020-01-19 11:40:05.800000,161.312,-82.75,25.625,1.251,-1049.0,-156.0,-314.0
2020-01-19 11:40:05.900000,-173.563,-82.75,25.625,0.914,-845.0,-251.0,-45.0
2020-01-19 11:40:06,-173.563,-80.0,14.125,0.655,-604.0,-251.0,-45.0
2020-01-19 11:40:06.100000,-155.625,-78.438,23.437,0.655,-604.0,-187.0,-147.0
2020-01-19 11:40:06.200000,-141.813,-78.438,23.437,1.165,-1141.0,2.0,-142.0
2020-01-19 11:40:06.300000,-141.813,-80.938,21.937,1.007,-997.0,2.0,-142.0
2020-01-19 11:40:06.400000,-129.625,-88.063,253.437,1.007,-997.0,-51.0,-219.0
2020-01-19 11:40:06.500000,-1.813,-88.063,253.437,1.071,-1048.0,65.0,-28.0
2020-01-19 11:40:06.600000,-1.813,-86.0,127.5,0.89,-888.0,65.0,-28.0
2020-01-19 11:40:06.700000,177.062,-80.75,127.875,0.89,-888.0,45.0,-120.0
2020-01-19 11:40:06.800000,140.625,-80.75,127.875,1.163,-1156.0,-2.0,-283.0
2020-01-19 11:40:06.900000,140.625,-77.563,115.812,0.892,-846.0,-2.0,-283.0
2020-01-19 11:40:07,160.5,-81.063,129.625,0.892,-846.0,-117.0,-153.0
2020-01-19 11:40:07.100000,139.937,-81.063,129.625,1.142,-1126.0,-248.0,-35.0
2020-01-19 11:40:07.200000,139.937,-86.125,163.062,0.872,-836.0,-248.0,-35.0
2020-01-19 11:40:07.300000,176.125,-84.563,346.312,0.872,-836.0,-214.0,-54.0
2020-01-19 11:40:07.400000,-5.375,-84.563,346.312,1.007,-983.0,-195.0,18.0
2020-01-19 11:40:07.500000,-5.375,-80.563,332.812,1.018,-1000.0,-195.0,18.0
2020-01-19 11:40:07.600000,-82.875,-79.0,302.875,1.018,-1000.0,-98.0,194.0
2020-01-19 11:40:07.700000,-66.5,-79.0,302.875,0.943,-918.0,107.0,150.0
2020-01-19 11:40:07.800000,-66.5,-77.813,277.0,1.107,-1092.0,107.0,150.0
2020-01-19 11:40:07.900000,-49.125,-79.75,253.062,1.107,-1092.0,9.0,152.0
2020-01-19 11:40:08,-36.188,-79.75,253.062,1.015,-1004.0,-7.0,118.0
2020-01-19 11:40:08.100000,-36.188,-79.5,241.25,0.983,-976.0,-7.0,118.0
2020-01-19 11:40:08.200000,-30.938,-79.563,239.75,0.983,-976.0,-36.0,129.0
2020-01-19 11:40:08.300000,-32.688,-79.563,239.75,1.022,-1014.0,-87.0,160.0
2020-01-19 11:40:08.400000,-32.688,-79.563,242.187,0.992,-976.0,-87.0,160.0
2020-01-19 11:40:08.500000,-36.688,-78.5,252.125,0.992,-976.0,-137.0,145.0
2020-01-19 11:40:08.600000,-42.563,-78.5,252.125,1.044,-1025.0,-177.0,90.0
2020-01-19 11:40:08.700000,-42.563,-77.5,261.937,0.978,-958.0,-177.0,90.0
2020-01-19 11:40:08.800000,-45.875,-76.688,268.187,0.978,-958.0,-217.0,32.0
2020-01-19 11:40:08.900000,-41.938,-76.688,268.187,1.031,-1008.0,-269.0,-1.0
2020-01-19 11:40:09,-41.938,-78.5,281.75,0.996,-960.0,-269.0,-1.0
2020-01-19 11:40:09.100000,-47.375,-79.188,301.562,0.996,-960.0,-259.0,-3.0
2020-01-19 11:40:09.200000,-59.625,-79.188,301.562,1.025,-992.0,-221.0,-3.0
2020-01-19 11:40:09.300000,-59.625,-80.0,308.312,0.986,-961.0,-221.0,-3.0
2020-01-19 11:40:09.400000,-59.0,-79.375,310.562,0.986,-961.0,-197.0,27.0
2020-01-19 11:40:09.500000,-54.563,-79.375,310.562,0.996,-976.0,-196.0,38.0
2020-01-19 11:40:09.600000,-54.563,-79.5,316.125,1.011,-992.0,-196.0,38.0
2020-01-19 11:40:09.700000,-57.5,-79.625,304.937,1.011,-992.0,-104.0,160.0
2020-01-19 11:40:09.800000,-44.563,-79.625,304.937,1.014,-996.0,-34.0,160.0
2020-01-19 11:40:09.900000,-44.563,-81.313,295.125,0.969,-956.0,-34.0,160.0
2020-01-19 11:40:10,-35.5,-83.75,286.125,0.969,-956.0,10.0,160.0
2020-01-19 11:40:10.100000,-3.438,-83.75,286.125,1.061,-1049.0,54.0,139.0
2020-01-19 11:40:10.200000,-3.438,-85.625,294.875,1.005,-994.0,54.0,139.0
2020-01-19 11:40:10.300000,-3.438,-86.25,262.75,1.005,-994.0,70.0,194.0
2020-01-19 11:40:10.400000,-2.188,-86.25,262.75,1.025,-1005.0,79.0,206.0
2020-01-19 11:40:10.500000,-2.188,-84.938,234.437,0.962,-937.0,79.0,206.0
2020-01-19 11:40:10.600000,-0.938,-84.375,216.062,0.962,-937.0,-41.0,181.0
2020-01-19 11:40:10.700000,0.375,-84.375,216.062,0.992,-975.0,-54.0,69.0
2020-01-19 11:40:10.800000,0.375,-83.375,226.062,1.013,-1010.0,-128.0,-103.0
2020-01-19 11:40:10.900000,-0.938,-84.25,227.062,1.155,-1144.0,-128.0,-103.0
2020-01-19 11:40:11,-1.0,-87.313,215.437,1.155,-1144.0,-161.0,-131.0
2020-01-19 11:40:11.100000,-2.125,-87.313,215.437,0.948,-925.0,-162.0,-138.0
2020-01-19 11:40:11.200000,-2.125,-86.25,352.062,0.918,-894.0,-162.0,-138.0
2020-01-19 11:40:11.300000,-177.813,-81.125,358.25,0.918,-894.0,-90.0,-162.0
2020-01-19 11:40:11.400000,-152.563,-81.125,358.25,0.992,-975.0,-90.0,-162.0
2020-01-19 11:40:11.500000,-152.563,-76.875,348.375,0.992,-975.0,-87.0,-83.0
2020-01-19 11:40:11.600000,-148.063,-76.875,348.375,0.955,-948.0,23.0,-73.0
2020-01-19 11:40:11.700000,-148.063,-78.375,336.875,1.124,-1122.0,23.0,-73.0
2020-01-19 11:40:11.800000,-140.688,-83.125,330.5,1.124,-1122.0,21.0,-71.0
2020-01-19 11:40:11.900000,-175.125,-83.125,330.5,0.948,-946.0,-29.0,-32.0
2020-01-19 11:40:12,-175.125,-84.313,306.0,1.092,-1092.0,-29.0,-32.0
2020-01-19 11:40:12.100000,-174.75,-83.0,305.187,1.092,-1092.0,-113.0,-105.0
2020-01-19 11:40:12.200000,-109.563,-83.0,305.187,0.903,-890.0,-185.0,-337.0
2020-01-19 11:40:12.300000,-109.563,-81.0,313.625,1.076,-1006.0,-185.0,-337.0
2020-01-19 11:40:12.400000,-110.75,-77.625,332.75,1.076,-1006.0,-232.0,-294.0
2020-01-19 11:40:12.500000,-132.938,-77.625,332.75,0.997,-925.0,-233.0,-224.0
2020-01-19 11:40:12.600000,-132.938,-75.0,348.375,0.933,-876.0,-163.0,-258.0
2020-01-19 11:40:12.700000,-147.125,-75.063,358.812,0.993,-945.0,-163.0,-258.0
2020-01-19 11:40:12.800000,-148.625,-76.938,357.75,0.993,-945.0,-90.0,-69.0
2020-01-19 11:40:12.900000,-142.625,-76.938,357.75,1.136,-1131.0,-35.0,10.0
2020-01-19 11:40:13,-142.625,-79.688,351.25,0.949,-949.0,-35.0,10.0
2020-01-19 11:40:13.100000,-138.0,-82.188,357.0,0.949,-949.0,3.0,54.0
2020-01-19 11:40:13.200000,-142.0,-82.188,357.0,0.972,-971.0,-2.0,53.0
2020-01-19 11:40:13.300000,-142.0,-83.125,12.625,1.049,-1048.0,-2.0,53.0
2020-01-19 11:40:13.400000,-177.25,-85.25,2.687,1.049,-1048.0,19.0,-19.0
2020-01-19 11:40:13.500000,-177.313,-85.25,2.687,0.969,-969.0,-71.0,-130.0
2020-01-19 11:40:13.600000,-177.313,-87.438,216.812,0.985,-974.0,-71.0,-130.0
2020-01-19 11:40:13.700000,-179.188,-84.875,40.0,0.985,-974.0,-173.0,-166.0
2020-01-19 11:40:13.800000,179.187,-84.875,40.0,1.018,-990.0,-89.0,-108.0
2020-01-19 11:40:13.900000,179.187,-83.25,16.562,0.958,-948.0,-89.0,-108.0
2020-01-19 11:40:14,-178.688,-82.188,24.875,0.958,-948.0,77.0,-85.0
2020-01-19 11:40:14.100000,179.437,-82.188,24.875,1.015,-1009.0,-174.0,175.0
2020-01-19 11:40:14.200000,179.437,-82.125,17.125,0.856,-820.0,-174.0,175.0
2020-01-19 11:40:14.300000,177.687,-79.313,340.125,0.856,-820.0,206.0,223.0
2020-01-19 11:40:14.400000,-153.5,-79.313,340.125,1.202,-1164.0,81.0,-70.0
2020-01-19 11:40:14.500000,-153.5,-76.188,323.25,1.044,-1039.0,81.0,-70.0
2020-01-19 11:40:14.600000,-143.313,-81.313,278.375,1.044,-1039.0,58.0,-216.0
2020-01-19 11:40:14.700000,-120.188,-81.313,278.375,1.067,-1044.0,-8.0,-129.0
2020-01-19 11:40:14.800000,-120.188,-84.25,237.062,1.276,-1270.0,-8.0,-129.0
2020-01-19 11:40:14.900000,-174.313,-86.0,234.812,1.276,-1270.0,100.0,73.0
2020-01-19 11:40:15,-176.313,-86.0,234.812,0.666,-655.0,135.0,24.0
2020-01-19 11:40:15.100000,-176.313,-83.563,329.437,1.041,-1032.0,135.0,24.0
2020-01-19 11:40:15.200000,176.687,-73.188,321.812,1.041,-1032.0,179.0,201.0
2020-01-19 11:40:15.300000,145.812,-73.188,321.812,0.955,-917.0,286.0,-240.0
2020-01-19 11:40:15.400000,145.812,-70.625,322.75,1.152,-1090.0,286.0,-240.0
2020-01-19 11:40:15.500000,134.875,-70.75,313.937,1.152,-1090.0,-49.0,-530.0
2020-01-19 11:40:15.600000,131.75,-70.75,313.937,1.144,-1013.0,-71.0,-547.0
2020-01-19 11:40:15.700000,131.75,-64.813,302.125,0.972,-801.0,-71.0,-547.0
2020-01-19 11:40:15.800000,140.937,-56.563,297.562,0.972,-801.0,34.0,-308.0
2020-01-19 11:40:15.900000,150.437,-56.563,297.562,0.654,-577.0,182.0,-396.0
2020-01-19 11:40:16,150.437,-61.313,297.25,0.766,-631.0,182.0,-396.0
2020-01-19 11:40:16.100000,151.875,-69.375,300.562,0.766,-631.0,216.0,-669.0
2020-01-19 11:40:16.200000,156.625,-69.375,300.562,1.108,-857.0,157.0,-1155.0
2020-01-19 11:40:16.300000,156.625,-59.188,290.812,1.275,-519.0,157.0,-1155.0
2020-01-19 11:40:16.400000,168.0,-31.563,295.562,1.275,-519.0,267.0,-1224.0
2020-01-19 11:40:16.500000,172.5,-31.563,295.562,1.283,-277.0,31.0,-782.0
2020-01-19 11:40:16.600000,172.5,-11.5,302.125,0.834,-289.0,31.0,-782.0
2020-01-19 11:40:16.700000,165.187,-9.625,310.125,0.834,-289.0,495.0,-820.0
2020-01-19 11:40:16.800000,162.75,-9.625,310.125,1.059,-453.0,616.0,-784.0
2020-01-19 11:40:16.900000,162.75,-16.75,317.812,1.075,-403.0,616.0,-784.0
2020-01-19 11:40:17,164.312,-22.5,313.937,1.075,-403.0,-43.0,-896.0
2020-01-19 11:40:17.100000,166.687,-22.5,313.937,0.957,-334.0,-126.0,-849.0
2020-01-19 11:40:17.200000,166.687,-20.375,308.75,0.877,-182.0,-126.0,-849.0
2020-01-19 11:40:17.300000,175.25,-11.625,310.937,0.877,-182.0,321.0,-793.0
2020-01-19 11:40:17.400000,170.312,-11.625,310.937,0.855,25.0,591.0,-913.0
2020-01-19 11:40:17.500000,170.312,-16.313,308.687,1.15,-375.0,591.0,-913.0
2020-01-19 11:40:17.600000,157.25,-14.625,305.437,1.15,-375.0,101.0,-823.0
2020-01-19 11:40:17.700000,153.062,-14.625,305.437,0.829,17.0,134.0,-1242.0
2020-01-19 11:40:17.800000,153.062,-0.063,310.187,1.279,276.0,134.0,-1242.0
2020-01-19 11:40:17.900000,158.062,17.062,313.812,1.279,276.0,349.0,-1288.0
2020-01-19 11:40:18,159.875,17.062,313.812,1.338,98.0,290.0,-1050.0
2020-01-19 11:40:18.100000,159.875,15.375,316.437,1.1,-156.0,290.0,-1050.0
2020-01-19 11:40:18.200000,154.125,3.062,321.312,1.1,-156.0,190.0,-764.0
2020-01-19 11:40:18.300000,151.5,3.062,321.312,0.835,-279.0,256.0,-593.0
2020-01-19 11:40:18.400000,151.5,-10.938,331.187,0.808,-487.0,256.0,-593.0
2020-01-19 11:40:18.500000,152.75,-26.75,346.437,0.808,-487.0,214.0,-502.0
2020-01-19 11:40:18.600000,159.187,-26.75,346.437,0.96,-791.0,91.0,-457.0
2020-01-19 11:40:18.700000,159.187,-41.625,358.375,0.886,-754.0,91.0,-457.0
2020-01-19 11:40:18.800000,160.5,-53.313,1.062,0.886,-754.0,92.0,-354.0
2020-01-19 11:40:18.900000,168.812,-53.313,1.062,0.787,-697.0,30.0,-617.0
2020-01-19 11:40:19,168.812,-60.063,1.125,1.246,-1083.0,30.0,-617.0
2020-01-19 11:40:19.100000,179.687,-64.125,2.812,1.246,-1083.0,-68.0,-556.0
2020-01-19 11:40:19.200000,-168.188,-64.125,2.812,0.933,-747.0,-312.0,-433.0
2020-01-19 11:40:19.300000,-168.188,-62.875,23.375,1.033,-885.0,-312.0,-433.0
2020-01-19 11:40:19.400000,-171.5,-59.0,48.875,1.033,-885.0,-430.0,-315.0
2020-01-19 11:40:19.500000,-171.688,-59.0,48.875,0.949,-786.0,-276.0,-18.0
2020-01-19 11:40:19.600000,-171.688,-51.313,61.437,0.877,-833.0,-276.0,-18.0
2020-01-19 11:40:19.700000,-156.5,-46.375,65.875,0.877,-833.0,784.0,94.0
2020-01-19 11:40:19.800000,-146.813,-46.375,65.875,1.633,-1430.0,556.0,-130.0
2020-01-19 11:40:19.900000,-146.813,-57.375,58.75,2.337,-2267.0,556.0,-130.0
2020-01-19 11:40:20,-141.875,-83.688,221.187,2.337,-2267.0,-260.0,-41.0
2020-01-19 11:40:20.100000,1.625,-83.688,221.187,0.517,-446.0,-243.0,201.0
2020-01-19 11:40:20.200000,1.625,-28.438,200.437,0.482,-365.0,-243.0,201.0
2020-01-19 11:40:20.300000,-3.813,-12.0,189.5,0.482,-365.0,-204.0,346.0
2020-01-19 11:40:20.400000,-42.813,-12.0,189.5,1.127,-1054.0,40.0,128.0
2020-01-19 11:40:20.500000,-42.813,-25.188,190.625,1.402,-1396.0,40.0,128.0
2020-01-19 11:40:20.600000,-49.875,-65.188,212.75,1.402,-1396.0,48.0,-337.0
2020-01-19 11:40:20.700000,-48.5,-65.188,212.75,1.17,-1120.0,-255.0,-480.0
2020-01-19 11:40:20.800000,-48.5,-72.375,1.5,1.156,-1021.0,-255.0,-480.0
2020-01-19 11:40:20.900000,178.375,-49.563,22.687,1.156,-1021.0,-257.0,-330.0
2020-01-19 11:40:21,-175.938,-49.563,22.687,0.781,-660.0,-189.0,-504.0
2020-01-19 11:40:21.100000,-175.938,-50.375,33.562,1.027,-875.0,-189.0,-504.0
2020-01-19 11:40:21.200000,-169.25,-57.5,38.5,1.027,-875.0,0.0,-481.0
2020-01-19 11:40:21.300000,-177.125,-57.5,38.5,1.057,-942.0,167.0,-122.0
2020-01-19 11:40:21.400000,-177.125,-65.5,38.125,1.11,-1091.0,167.0,-122.0
2020-01-19 11:40:21.500000,172.625,-70.188,38.0,1.11,-1091.0,100.0,-90.0
2020-01-19 11:40:21.600000,167.5,-70.188,38.0,0.77,-759.0,72.0,-8.0
2020-01-19 11:40:21.700000,167.5,-71.063,42.437,1.103,-1101.0,72.0,-8.0
2020-01-19 11:40:21.800000,166.812,-71.125,47.187,1.103,-1101.0,64.0,-81.0
2020-01-19 11:40:21.900000,162.812,-71.125,47.187,0.961,-956.0,74.0,61.0
2020-01-19 11:40:22,162.812,-73.375,48.812,0.866,-861.0,74.0,61.0
2020-01-19 11:40:22.100000,159.375,-71.0,44.937,0.866,-861.0,-152.0,66.0
2020-01-19 11:40:22.200000,154.312,-71.0,44.937,0.741,-723.0,-198.0,211.0
2020-01-19 11:40:22.300000,154.312,-68.688,43.625,1.736,-1712.0,-198.0,211.0
2020-01-19 11:40:22.400000,153.312,-72.0,26.5,1.736,-1712.0,-153.0,-243.0
2020-01-19 11:40:22.500000,165.125,-72.0,26.5,0.993,-951.0,-107.0,-907.0
2020-01-19 11:40:22.600000,165.125,-71.375,357.937,1.278,-894.0,-107.0,-907.0
2020-01-19 11:40:22.700000,-165.063,-62.938,353.062,1.278,-894.0,-465.0,149.0
2020-01-19 11:40:22.800000,-168.313,-62.938,353.062,1.057,-938.0,64.0,482.0
2020-01-19 11:40:22.900000,-168.313,-52.75,347.812,0.56,-278.0,64.0,482.0
2020-01-19 11:40:23,-156.438,-63.625,357.125,0.56,-278.0,206.0,-102.0
2020-01-19 11:40:23.100000,-150.938,-63.625,357.125,2.071,-2059.0,-120.0,-137.0
2020-01-19 11:40:23.200000,-150.938,-78.25,334.062,0.513,-480.0,-120.0,-137.0
2020-01-19 11:40:23.300000,-133.75,-73.438,2.5,0.513,-480.0,-99.0,178.0
2020-01-19 11:40:23.400000,-170.25,-73.438,2.5,1.457,-1443.0,779.0,-324.0
2020-01-19 11:40:23.500000,-170.25,-66.063,27.25,1.713,-1491.0,779.0,-324.0
2020-01-19 11:40:23.600000,173.437,-85.688,160.062,1.713,-1491.0,247.0,-98.0
2020-01-19 11:40:23.700000,3.5,-85.688,160.062,1.485,-1462.0,-263.0,35.0
2020-01-19 11:40:23.800000,3.5,-52.375,201.687,0.332,-201.0,-263.0,35.0
2020-01-19 11:40:23.900000,-7.188,-86.25,347.0,0.332,-201.0,259.0,-931.0
2020-01-19 11:40:24,-179.0,-86.25,347.0,1.692,-1389.0,-208.0,116.0
2020-01-19 11:40:24.100000,-179.0,-67.875,7.562,0.416,-342.0,-208.0,116.0
2020-01-19 11:40:24.200000,-169.25,-63.313,18.5,0.416,-342.0,-171.0,-474.0
2020-01-19 11:40:24.300000,176.25,-63.313,18.5,1.651,-1573.0,-144.0,-709.0
2020-01-19 11:40:24.400000,176.25,-59.688,24.687,1.025,-727.0,-144.0,-709.0
2020-01-19 11:40:24.500000,-161.625,-66.938,304.937,1.025,-727.0,198.0,-358.0
2020-01-19 11:40:24.600000,-103.125,-66.938,304.937,0.409,-7.0,-844.0,-571.0
2020-01-19 11:40:24.700000,-103.125,-61.375,256.75,2.491,-2274.0,-844.0,-571.0
2020-01-19 11:40:24.800000,-87.0,-53.938,263.5,2.491,-2274.0,-33.0,82.0
2020-01-19 11:40:24.900000,-69.5,-53.938,263.5,0.383,-373.0,-456.0,-175.0
2020-01-19 11:40:25,-69.5,-86.938,225.562,0.853,-700.0,-456.0,-175.0
2020-01-19 11:40:25.100000,-179.313,-79.625,82.187,0.853,-700.0,-708.0,-29.0
2020-01-19 11:40:25.200000,167.75,-79.625,82.187,1.853,-1713.0,348.0,-470.0
2020-01-19 11:40:25.300000,167.75,-77.5,44.812,1.39,-1262.0,348.0,-470.0
2020-01-19 11:40:25.400000,-137.313,-79.313,92.062,1.39,-1262.0,158.0,-229.0
2020-01-19 11:40:25.500000,175.687,-79.313,92.062,0.383,264.0,-477.0,45.0
2020-01-19 11:40:25.600000,175.687,-73.438,91.312,1.391,-1306.0,-477.0,45.0
2020-01-19 11:40:25.700000,158.5,-77.25,94.937,1.391,-1306.0,-623.0,-230.0
2020-01-19 11:40:25.800000,158.187,-77.25,94.937,1.612,-1469.0,275.0,-26.0
2020-01-19 11:40:25.900000,158.187,-69.375,73.687,1.515,-1490.0,275.0,-26.0
2020-01-19 11:40:26,-156.25,-67.938,88.812,1.515,-1490.0,160.0,-490.0
2020-01-19 11:40:26.100000,-166.625,-67.938,88.812,0.535,144.0,-162.0,-606.0
2020-01-19 11:40:26.200000,-166.625,-68.125,64.25,1.62,-1494.0,-162.0,-606.0
2020-01-19 11:40:26.300000,-155.25,-69.75,40.375,1.62,-1494.0,-335.0,-239.0
2020-01-19 11:40:26.400000,-158.438,-69.75,40.375,1.205,-1133.0,343.0,-284.0
2020-01-19 11:40:26.500000,-158.438,-79.25,13.937,1.077,-981.0,343.0,-284.0
2020-01-19 11:40:26.600000,-120.625,-84.0,34.687,1.077,-981.0,154.0,-277.0
2020-01-19 11:40:26.700000,-177.25,-84.0,34.687,0.738,-667.0,94.0,-519.0
2020-01-19 11:40:26.800000,-177.25,-77.813,25.812,1.145,-1017.0,94.0,-519.0
2020-01-19 11:40:26.900000,-156.625,-71.25,35.625,1.145,-1017.0,-178.0,-467.0
2020-01-19 11:40:27,-163.5,-71.25,35.625,1.125,-1008.0,-93.0,-386.0
2020-01-19 11:40:27.100000,-163.5,-64.0,47.812,0.986,-903.0,-93.0,-386.0
2020-01-19 11:40:27.200000,-174.375,-52.813,55.562,0.986,-903.0,-70.0,-216.0
2020-01-19 11:40:27.300000,-178.75,-52.813,55.562,0.653,-613.0,276.0,-425.0
2020-01-19 11:40:27.400000,-178.75,-52.0,51.125,1.237,-1129.0,276.0,-425.0
2020-01-19 11:40:27.500000,176.25,-58.063,36.562,1.237,-1129.0,51.0,-165.0
2020-01-19 11:40:27.600000,175.25,-58.063,36.562,1.066,-1052.0,6.0,130.0
2020-01-19 11:40:27.700000,175.25,-73.313,14.75,0.977,-969.0,6.0,130.0
2020-01-19 11:40:27.800000,172.937,-82.0,13.375,0.977,-969.0,81.0,-25.0
2020-01-19 11:40:27.900000,-177.875,-82.0,13.375,0.946,-943.0,63.0,-65.0
2020-01-19 11:40:28,-177.875,-80.563,35.25,1.023,-1019.0,63.0,-65.0
2020-01-19 11:40:28.100000,164.562,-79.438,45.937,1.023,-1019.0,37.0,-105.0
2020-01-19 11:40:28.200000,148.25,-79.438,45.937,0.973,-967.0,52.0,-81.0
2020-01-19 11:40:28.300000,148.25,-81.313,47.25,0.99,-986.0,56.0,-84.0
2020-01-19 11:40:28.400000,144.5,-82.063,42.625,0.967,-962.0,56.0,-84.0
2020-01-19 11:40:28.500000,152.562,-83.563,40.0,0.967,-962.0,-57.0,-90.0
2020-01-19 11:40:28.600000,177.687,-83.563,40.0,1.014,-1009.0,-279.0,25.0
2020-01-19 11:40:28.700000,177.687,-84.188,33.062,1.157,-1123.0,-279.0,25.0
2020-01-19 11:40:28.800000,178.687,-85.875,4.375,1.157,-1123.0,42.0,32.0
2020-01-19 11:40:28.900000,-177.938,-85.875,4.375,0.884,-883.0,-297.0,87.0
2020-01-19 11:40:29,-177.938,-77.438,283.5,1.002,-954.0,-297.0,87.0
2020-01-19 11:40:29.100000,-71.75,-72.563,285.5,1.002,-954.0,-259.0,30.0
2020-01-19 11:40:29.200000,-71.375,-72.563,285.5,1.04,-1007.0,-380.0,-5.0
2020-01-19 11:40:29.300000,-71.375,-74.563,294.875,1.026,-954.0,-380.0,-5.0
2020-01-19 11:40:29.400000,-75.625,-76.313,307.625,1.026,-954.0,-376.0,-1.0
2020-01-19 11:40:29.500000,-88.125,-76.313,307.625,0.993,-920.0,-134.0,-166.0
2020-01-19 11:40:29.600000,-88.125,-77.813,327.5,0.855,-828.0,-134.0,-166.0
2020-01-19 11:40:29.700000,-104.25,-77.875,351.187,0.855,-828.0,130.0,-466.0
2020-01-19 11:40:29.800000,-126.563,-77.875,351.187,0.953,-822.0,173.0,-505.0
2020-01-19 11:40:29.900000,-126.563,-73.125,22.625,0.819,-622.0,173.0,-505.0
2020-01-19 11:40:30,-164.5,-56.75,38.812,0.819,-622.0,351.0,-828.0
2020-01-19 11:40:30.100000,168.187,-56.75,38.812,0.967,-358.0,393.0,-984.0
2020-01-19 11:40:30.200000,168.187,-31.25,49.0,1.06,37.0,393.0,-984.0
2020-01-19 11:40:30.300000,159.812,-10.0,55.312,1.06,37.0,329.0,-1092.0
2020-01-19 11:40:30.400000,157.125,-10.0,55.312,1.163,229.0,307.0,-1223.0
2020-01-19 11:40:30.500000,157.125,4.312,59.562,1.291,277.0,307.0,-1223.0
2020-01-19 11:40:30.600000,161.187,8.5,63.312,1.291,277.0,327.0,-997.0
2020-01-19 11:40:30.700000,164.375,8.5,63.312,1.054,106.0,451.0,-901.0
2020-01-19 11:40:30.800000,164.375,3.937,65.437,1.01,-70.0,451.0,-901.0
2020-01-19 11:40:30.900000,158.625,-8.875,65.25,1.01,-70.0,376.0,-617.0
2020-01-19 11:40:31,154.687,-8.875,65.25,0.786,-311.0,299.0,-558.0
2020-01-19 11:40:31.100000,154.687,-27.625,64.062,1.01,-788.0,299.0,-558.0
2020-01-19 11:40:31.200000,150.625,-50.25,64.562,1.01,-788.0,-27.0,-368.0
2020-01-19 11:40:31.300000,155.25,-50.25,64.562,0.974,-902.0,-106.0,-300.0
2020-01-19 11:40:31.400000,155.25,-66.813,65.375,1.164,-1120.0,-106.0,-300.0
2020-01-19 11:40:31.500000,157.812,-69.0,56.25,1.164,-1120.0,-94.0,-249.0
2020-01-19 11:40:31.600000,160.062,-69.0,56.25,0.715,-664.0,-99.0,-94.0
2020-01-19 11:40:31.700000,160.062,-70.125,37.875,0.757,-745.0,-99.0,-94.0
2020-01-19 11:40:31.800000,169.312,-67.125,19.5,0.757,-745.0,121.0,-520.0
2020-01-19 11:40:31.900000,177.75,-67.125,19.5,1.636,-1547.0,111.0,-153.0
2020-01-19 11:40:32,177.75,-74.688,335.375,0.631,-603.0,111.0,-153.0
2020-01-19 11:40:32.100000,-154.188,-73.5,312.812,0.631,-603.0,27.0,-208.0
2020-01-19 11:40:32.200000,-141.375,-73.5,312.812,0.968,-946.0,-209.0,-425.0
2020-01-19 11:40:32.300000,-141.375,-72.375,337.875,1.234,-1140.0,-209.0,-425.0
2020-01-19 11:40:32.400000,-159.375,-66.938,3.125,1.234,-1140.0,-198.0,-499.0
2020-01-19 11:40:32.500000,-164.438,-66.938,3.125,1.058,-912.0,-137.0,-195.0
2020-01-19 11:40:32.600000,-164.438,-58.563,16.687,0.726,-686.0,-137.0,-195.0
2020-01-19 11:40:32.700000,-174.188,-62.125,24.312,0.726,-686.0,-83.0,-498.0
2020-01-19 11:40:32.800000,178.437,-62.125,24.312,1.033,-902.0,-64.0,-275.0
2020-01-19 11:40:32.900000,178.437,-68.25,28.125,0.816,-766.0,-64.0,-275.0
2020-01-19 11:40:33,-177.438,-75.188,22.875,0.816,-766.0,146.0,-175.0
2020-01-19 11:40:33.100000,-176.5,-75.188,22.875,1.33,-1311.0,49.0,-197.0
2020-01-19 11:40:33.200000,-176.5,-79.063,23.062,1.027,-1007.0,49.0,-197.0
2020-01-19 11:40:33.300000,-171.438,-75.438,45.062,1.027,-1007.0,49.0,-481.0
2020-01-19 11:40:33.400000,175.25,-75.438,45.062,1.047,-929.0,-134.0,-434.0
2020-01-19 11:40:33.500000,175.25,-64.938,64.75,0.941,-825.0,-134.0,-434.0
2020-01-19 11:40:33.600000,175.187,-51.438,71.875,0.941,-825.0,-268.0,-289.0
2020-01-19 11:40:33.700000,-168.875,-51.438,71.875,0.828,-729.0,-151.0,-35.0
2020-01-19 11:40:33.800000,-168.875,-42.063,75.937,0.996,-984.0,-151.0,-35.0
2020-01-19 11:40:33.900000,-153.125,-42.875,73.625,0.996,-984.0,1019.0,-216.0
2020-01-19 11:40:34,-146.188,-42.875,73.625,2.102,-1826.0,233.0,-11.0
2020-01-19 11:40:34.100000,-146.188,-65.938,53.625,1.756,-1741.0,233.0,-11.0
2020-01-19 11:40:34.200000,-132.75,-73.188,226.875,1.756,-1741.0,-433.0,94.0
2020-01-19 11:40:34.300000,3.187,-73.188,226.875,0.541,-311.0,-323.0,118.0
2020-01-19 11:40:34.400000,3.187,-28.563,208.937,0.424,-249.0,-323.0,118.0
2020-01-19 11:40:34.500000,-27.0,-16.938,204.187,0.424,-249.0,-441.0,277.0
